"","bird","date","task","trial","numLeft","numRight","areaLeft","areaRight","correct","choice","accuracy","RT","session","areaIncorrect","numIncorrect","areaCorrect","numCorrect","T_areaInc","T_numInc","T_areaCorr","T_numCorr","Euclidean","CityBlock"
"1","43R",2022-09-02,"n-A",1,6,16,21,9,"L","R",0,0.372,1,9,16,21,6,5,7,9,1,7.21110255092798,10
"2","43R",2022-09-02,"n-A",2,12,6,14,21,"R","R",1,0.621,1,14,12,21,6,7,5,9,1,4.47213595499958,6
"3","43R",2022-09-02,"n-A",3,10,6,14,21,"R","R",1,0.587,1,14,10,21,6,7,4,9,1,3.60555127546399,5
"4","43R",2022-09-02,"n-A",4,14,6,14,21,"R","L",0,0.43,1,14,14,21,6,7,6,9,1,5.3851648071345,7
"5","43R",2022-09-02,"n-A",5,7,6,21,21,"R","L",0,0.749,1,21,7,21,6,9,2,9,1,1,1
"6","43R",2022-09-02,"n-A",6,19,6,11,21,"R","L",0,2.217,1,11,19,21,6,6,8,9,1,7.61577310586391,10
"7","43R",2022-09-02,"n-A",7,7,6,5,21,"R","R",1,1.629,1,5,7,21,6,2,2,9,1,7.07106781186548,8
"8","43R",2022-09-02,"n-A",8,6,8,21,11,"L","R",0,1.493,1,11,8,21,6,6,3,9,1,3.60555127546399,5
"9","43R",2022-09-02,"n-A",9,6,8,21,14,"L","L",1,1.433,1,14,8,21,6,7,3,9,1,2.82842712474619,4
"10","43R",2022-09-02,"n-A",10,22,6,7,21,"R","L",0,2.476,1,7,22,21,6,4,9,9,1,9.4339811320566,13
"11","43R",2022-09-02,"n-A",11,12,6,21,21,"R","L",0,0.953,1,21,12,21,6,9,5,9,1,4,4
"12","43R",2022-09-02,"n-A",12,6,12,21,21,"L","L",1,2.717,1,21,12,21,6,9,5,9,1,4,4
"13","43R",2022-09-02,"n-A",13,12,6,5,21,"R","L",0,2.107,1,5,12,21,6,2,5,9,1,8.06225774829855,11
"14","43R",2022-09-02,"n-A",14,6,6,14,21,"R","L",0,1.308,1,14,6,21,6,7,1,9,1,2,2
"15","43R",2022-09-02,"n-A",15,6,10,21,21,"L","R",0,2.288,1,21,10,21,6,9,4,9,1,3,3
"16","43R",2022-09-02,"n-A",16,10,6,7,21,"R","R",1,1.329,1,7,10,21,6,4,4,9,1,5.8309518948453,8
"17","43R",2022-09-02,"n-A",17,19,6,21,21,"R","R",1,0.953,1,21,19,21,6,9,8,9,1,7,7
"18","43R",2022-09-02,"n-A",18,6,16,21,21,"L","L",1,1.348,1,21,16,21,6,9,7,9,1,6,6
"19","43R",2022-09-02,"n-A",19,16,6,4,21,"R","L",0,0.806,1,4,16,21,6,1,7,9,1,10,14
"20","43R",2022-09-02,"n-A",20,6,16,21,4,"L","L",1,0.497,1,4,16,21,6,1,7,9,1,10,14
"21","43R",2022-09-02,"n-A",21,7,6,7,21,"R","L",0,2.096,1,7,7,21,6,4,2,9,1,5.09901951359278,6
"22","43R",2022-09-02,"n-A",22,6,7,21,6,"L","L",1,0.585,1,6,7,21,6,3,2,9,1,6.08276253029822,7
"23","43R",2022-09-02,"n-A",23,6,19,21,5,"L","L",1,1.941,1,5,19,21,6,2,8,9,1,9.89949493661167,14
"24","43R",2022-09-02,"n-A",24,14,6,4,21,"R","L",0,1.25,1,4,14,21,6,1,6,9,1,9.4339811320566,13
"25","43R",2022-09-02,"n-A",25,6,14,21,4,"L","L",1,2.147,1,4,14,21,6,1,6,9,1,9.4339811320566,13
"26","43R",2022-09-02,"n-A",26,6,6,21,7,"L","L",1,1.707,1,7,6,21,6,4,1,9,1,5,5
"27","43R",2022-09-02,"n-A",27,6,6,21,4,"L","R",0,2.021,1,4,6,21,6,1,1,9,1,8,8
"28","43R",2022-09-02,"n-A",28,22,6,6,21,"R","L",0,1.587,1,6,22,21,6,3,9,9,1,10,14
"29","43R",2022-09-02,"n-A",29,19,6,9,21,"R","L",0,1.126,1,9,19,21,6,5,8,9,1,8.06225774829855,11
"30","43R",2022-09-02,"n-A",30,10,6,4,21,"R","R",1,1.829,1,4,10,21,6,1,4,9,1,8.54400374531753,11
"31","43R",2022-09-02,"n-A",31,7,6,14,21,"R","R",1,0.369,1,14,7,21,6,7,2,9,1,2.23606797749979,3
"32","43R",2022-09-02,"n-A",32,6,7,21,9,"L","L",1,0.549,1,9,7,21,6,5,2,9,1,4.12310562561766,5
"33","43R",2022-09-02,"n-A",33,7,6,9,21,"R","R",1,1.349,1,9,7,21,6,5,2,9,1,4.12310562561766,5
"34","43R",2022-09-02,"n-A",34,6,19,21,11,"L","L",1,1.061,1,11,19,21,6,6,8,9,1,7.61577310586391,10
"35","43R",2022-09-02,"n-A",35,8,6,5,21,"R","L",0,1.657,1,5,8,21,6,2,3,9,1,7.28010988928052,9
"36","43R",2022-09-02,"n-A",36,6,12,21,4,"L","L",1,0.772,1,4,12,21,6,1,5,9,1,8.94427190999916,12
"37","43R",2022-09-02,"n-A",37,6,19,21,17,"L","R",0,0.872,1,17,19,21,6,8,8,9,1,7.07106781186548,8
"38","43R",2022-09-02,"n-A",38,16,6,14,21,"R","L",0,2,1,14,16,21,6,7,7,9,1,6.32455532033676,8
"39","43R",2022-09-02,"n-A",39,6,6,5,21,"R","R",1,0.793,1,5,6,21,6,2,1,9,1,7,7
"40","43R",2022-09-02,"n-A",40,6,12,21,6,"L","L",1,1.645,1,6,12,21,6,3,5,9,1,7.21110255092798,10
"41","43R",2022-09-02,"n-A",41,6,8,21,7,"L","R",0,2.348,1,7,8,21,6,4,3,9,1,5.3851648071345,7
"42","43R",2022-09-02,"n-A",42,6,8,21,6,"L","L",1,0.721,1,6,8,21,6,3,3,9,1,6.32455532033676,8
"43","43R",2022-09-02,"n-A",43,6,6,21,17,"L","L",1,1.374,1,17,6,21,6,8,1,9,1,1,1
"44","43R",2022-09-02,"n-A",44,19,6,5,21,"R","L",0,0.629,1,5,19,21,6,2,8,9,1,9.89949493661167,14
"45","43R",2022-09-02,"n-A",45,10,6,17,21,"R","L",0,1.301,1,17,10,21,6,8,4,9,1,3.16227766016838,4
"46","43R",2022-09-02,"n-A",46,8,6,9,21,"R","R",1,1.694,1,9,8,21,6,5,3,9,1,4.47213595499958,6
"47","43R",2022-09-02,"n-A",47,16,6,6,21,"R","L",0,1.449,1,6,16,21,6,3,7,9,1,8.48528137423857,12
"48","43R",2022-09-02,"n-A",48,22,6,11,21,"R","L",0,2.317,1,11,22,21,6,6,9,9,1,8.54400374531753,11
"49","43R",2022-09-02,"n-A",49,6,10,21,17,"L","L",1,0.617,1,17,10,21,6,8,4,9,1,3.16227766016838,4
"50","43R",2022-09-02,"n-A",50,6,7,21,11,"L","L",1,1.061,1,11,7,21,6,6,2,9,1,3.16227766016838,4
"51","43R",2022-09-02,"n-A",51,19,6,17,21,"R","L",0,0.591,1,17,19,21,6,8,8,9,1,7.07106781186548,8
"52","43R",2022-09-02,"n-A",52,6,7,21,17,"L","L",1,0.58,1,17,7,21,6,8,2,9,1,1.4142135623731,2
"53","43R",2022-09-02,"n-A",53,22,6,4,21,"R","R",1,0.977,1,4,22,21,6,1,9,9,1,11.3137084989848,16
"54","43R",2022-09-02,"n-A",54,7,6,4,21,"R","L",0,3.399,1,4,7,21,6,1,2,9,1,8.06225774829855,9
"55","43R",2022-09-02,"n-A",55,8,6,14,21,"R","L",0,0.57,1,14,8,21,6,7,3,9,1,2.82842712474619,4
"56","43R",2022-09-02,"n-A",56,16,6,9,21,"R","R",1,1.56,1,9,16,21,6,5,7,9,1,7.21110255092798,10
"57","43R",2022-09-02,"n-A",57,6,14,21,11,"L","L",1,0.825,1,11,14,21,6,6,6,9,1,5.8309518948453,8
"58","43R",2022-09-02,"n-A",58,10,6,6,21,"R","R",1,1.485,1,6,10,21,6,3,4,9,1,6.70820393249937,9
"59","43R",2022-09-02,"n-A",59,6,16,21,11,"L","L",1,1.685,1,11,16,21,6,6,7,9,1,6.70820393249937,9
"60","43R",2022-09-02,"n-A",60,6,6,11,21,"R","R",1,0.696,1,11,6,21,6,6,1,9,1,3,3
"61","43R",2022-09-02,"n-A",61,10,6,5,21,"R","R",1,2.12,1,5,10,21,6,2,4,9,1,7.61577310586391,10
"62","43R",2022-09-02,"n-A",62,6,19,21,9,"L","L",1,0.613,1,9,19,21,6,5,8,9,1,8.06225774829855,11
"63","43R",2022-09-02,"n-A",63,6,8,21,9,"L","L",1,0.634,1,9,8,21,6,5,3,9,1,4.47213595499958,6
"64","43R",2022-09-02,"n-A",64,6,16,21,7,"L","L",1,1.993,1,7,16,21,6,4,7,9,1,7.81024967590665,11
"65","43R",2022-09-02,"n-A",65,6,22,21,21,"L","L",1,0.507,1,21,22,21,6,9,9,9,1,8,8
"66","43R",2022-09-02,"n-A",66,19,6,7,21,"R","R",1,1.201,1,7,19,21,6,4,8,9,1,8.60232526704263,12
"67","43R",2022-09-02,"n-A",67,6,6,7,21,"R","R",1,1.505,1,7,6,21,6,4,1,9,1,5,5
"68","43R",2022-09-02,"n-A",68,14,6,11,21,"R","L",0,2.597,1,11,14,21,6,6,6,9,1,5.8309518948453,8
"69","43R",2022-09-02,"n-A",69,8,6,21,21,"R","L",0,0.928,1,21,8,21,6,9,3,9,1,2,2
"70","43R",2022-09-02,"n-A",70,19,6,4,21,"R","R",1,0.973,1,4,19,21,6,1,8,9,1,10.6301458127346,15
"71","43R",2022-09-02,"n-A",71,22,6,9,21,"R","R",1,0.459,1,9,22,21,6,5,9,9,1,8.94427190999916,12
"72","43R",2022-09-02,"n-A",72,6,19,21,14,"L","L",1,0.912,1,14,19,21,6,7,8,9,1,7.28010988928052,9
"73","43R",2022-09-02,"n-A",73,16,6,21,21,"R","L",0,1.121,1,21,16,21,6,9,7,9,1,6,6
"74","43R",2022-09-02,"n-A",74,6,16,21,17,"L","R",0,0.601,1,17,16,21,6,8,7,9,1,6.08276253029822,7
"75","43R",2022-09-02,"n-A",75,6,6,21,14,"L","L",1,1.397,1,14,6,21,6,7,1,9,1,2,2
"76","43R",2022-09-02,"n-A",76,7,6,11,21,"R","L",0,0.893,1,11,7,21,6,6,2,9,1,3.16227766016838,4
"77","43R",2022-09-02,"n-A",77,12,6,7,21,"R","R",1,2.794,1,7,12,21,6,4,5,9,1,6.40312423743285,9
"78","43R",2022-09-02,"n-A",78,6,22,21,5,"L","L",1,1.118,1,5,22,21,6,2,9,9,1,10.6301458127346,15
"79","43R",2022-09-02,"n-A",79,6,6,6,21,"R","R",1,5.933,1,6,6,21,6,3,1,9,1,6,6
"80","43R",2022-09-02,"n-A",80,12,6,9,21,"R","L",0,2.533,1,9,12,21,6,5,5,9,1,5.65685424949238,8
"81","43R",2022-09-02,"n-A",81,6,19,21,7,"L","L",1,1.385,1,7,19,21,6,4,8,9,1,8.60232526704263,12
"82","43R",2022-09-02,"n-A",82,6,22,21,7,"L","L",1,0.585,1,7,22,21,6,4,9,9,1,9.4339811320566,13
"83","43R",2022-09-02,"n-A",83,6,10,21,7,"L","R",0,3.525,1,7,10,21,6,4,4,9,1,5.8309518948453,8
"84","43R",2022-09-02,"n-A",84,6,19,21,6,"L","L",1,2.769,1,6,19,21,6,3,8,9,1,9.21954445729289,13
"85","43R",2022-09-02,"n-A",85,6,10,21,9,"L","L",1,0.625,1,9,10,21,6,5,4,9,1,5,7
"86","43R",2022-09-02,"n-A",86,14,6,6,21,"R","R",1,0.581,1,6,14,21,6,3,6,9,1,7.81024967590665,11
"87","43R",2022-09-02,"n-A",87,16,6,11,21,"R","L",0,1.258,1,11,16,21,6,6,7,9,1,6.70820393249937,9
"88","43R",2022-09-02,"n-A",88,6,7,21,21,"L","L",1,0.461,1,21,7,21,6,9,2,9,1,1,1
"89","43R",2022-09-02,"n-A",89,6,6,21,9,"L","L",1,0.617,1,9,6,21,6,5,1,9,1,4,4
"90","43R",2022-09-02,"n-A",90,22,6,14,21,"R","R",1,2.193,1,14,22,21,6,7,9,9,1,8.24621125123532,10
"91","43R",2022-09-02,"n-A",91,14,6,7,21,"R","R",1,1.764,1,7,14,21,6,4,6,9,1,7.07106781186548,10
"92","43R",2022-09-02,"n-A",92,6,22,21,11,"L","L",1,1.22,1,11,22,21,6,6,9,9,1,8.54400374531753,11
"93","43R",2022-09-02,"n-A",93,8,6,7,21,"R","R",1,0.781,1,7,8,21,6,4,3,9,1,5.3851648071345,7
"94","43R",2022-09-02,"n-A",94,6,10,21,11,"L","L",1,1.62,1,11,10,21,6,6,4,9,1,4.24264068711928,6
"95","43R",2022-09-02,"n-A",95,6,12,21,11,"L","L",1,1.364,1,11,12,21,6,6,5,9,1,5,7
"96","43R",2022-09-02,"n-A",96,8,6,17,21,"R","L",0,0.953,1,17,8,21,6,8,3,9,1,2.23606797749979,3
"97","43R",2022-09-02,"n-A",97,6,14,21,6,"L","L",1,0.841,1,6,14,21,6,3,6,9,1,7.81024967590665,11
"98","43R",2022-09-02,"n-A",98,12,6,6,21,"R","L",0,0.633,1,6,12,21,6,3,5,9,1,7.21110255092798,10
"99","43R",2022-09-02,"n-A",99,6,14,21,17,"L","L",1,0.633,1,17,14,21,6,8,6,9,1,5.09901951359278,6
"100","43R",2022-09-02,"n-A",100,6,19,21,4,"L","L",1,0.911,1,4,19,21,6,1,8,9,1,10.6301458127346,15
"101","43R",2022-09-02,"n-A",101,16,6,5,21,"R","R",1,0.637,1,5,16,21,6,2,7,9,1,9.21954445729289,13
"102","43R",2022-09-02,"n-A",102,6,22,21,14,"L","L",1,0.781,1,14,22,21,6,7,9,9,1,8.24621125123532,10
"103","43R",2022-09-02,"n-A",103,22,6,17,21,"R","L",0,0.697,1,17,22,21,6,8,9,9,1,8.06225774829855,9
"104","43R",2022-09-02,"n-A",104,6,10,21,5,"L","L",1,1.008,1,5,10,21,6,2,4,9,1,7.61577310586391,10
"105","43R",2022-09-02,"n-A",105,6,7,21,7,"L","L",1,0.711,1,7,7,21,6,4,2,9,1,5.09901951359278,6
"106","43R",2022-09-02,"n-A",106,8,6,11,21,"R","L",0,0.741,1,11,8,21,6,6,3,9,1,3.60555127546399,5
"107","43R",2022-09-02,"n-A",107,6,10,21,4,"L","L",1,0.697,1,4,10,21,6,1,4,9,1,8.54400374531753,11
"108","43R",2022-09-02,"n-A",108,14,6,21,21,"R","L",0,0.473,1,21,14,21,6,9,6,9,1,5,5
"109","43R",2022-09-02,"n-A",109,7,6,17,21,"R","R",1,1.13,1,17,7,21,6,8,2,9,1,1.4142135623731,2
"110","43R",2022-09-02,"n-A",110,6,6,4,21,"R","R",1,0.953,1,4,6,21,6,1,1,9,1,8,8
"111","43R",2022-09-02,"n-A",111,6,10,21,14,"L","L",1,0.568,1,14,10,21,6,7,4,9,1,3.60555127546399,5
"112","43R",2022-09-02,"n-A",112,6,6,9,21,"R","L",0,1.009,1,9,6,21,6,5,1,9,1,4,4
"113","43R",2022-09-02,"n-A",113,16,6,17,21,"R","R",1,0.753,1,17,16,21,6,8,7,9,1,6.08276253029822,7
"114","43R",2022-09-02,"n-A",114,22,6,5,21,"R","R",1,0.749,1,5,22,21,6,2,9,9,1,10.6301458127346,15
"115","43R",2022-09-02,"n-A",115,6,22,21,9,"L","L",1,0.901,1,9,22,21,6,5,9,9,1,8.94427190999916,12
"116","43R",2022-09-02,"n-A",116,6,16,21,6,"L","L",1,1.09,1,6,16,21,6,3,7,9,1,8.48528137423857,12
"117","43R",2022-09-02,"n-A",117,16,6,7,21,"R","R",1,1.069,1,7,16,21,6,4,7,9,1,7.81024967590665,11
"118","43R",2022-09-02,"n-A",118,6,8,21,17,"L","L",1,0.505,1,17,8,21,6,8,3,9,1,2.23606797749979,3
"119","43R",2022-09-02,"n-A",119,6,8,21,4,"L","L",1,0.565,1,4,8,21,6,1,3,9,1,8.24621125123532,10
"120","43R",2022-09-02,"n-A",120,6,12,21,9,"L","L",1,1.17,1,9,12,21,6,5,5,9,1,5.65685424949238,8
"121","43R",2022-09-02,"n-A",121,10,6,21,21,"R","L",0,0.961,1,21,10,21,6,9,4,9,1,3,3
"122","43R",2022-09-02,"n-A",122,6,14,21,7,"L","L",1,1.689,1,7,14,21,6,4,6,9,1,7.07106781186548,10
"123","43R",2022-09-02,"n-A",123,12,6,4,21,"R","R",1,0.765,1,4,12,21,6,1,5,9,1,8.94427190999916,12
"124","43R",2022-09-02,"n-A",124,6,12,21,14,"L","L",1,0.857,1,14,12,21,6,7,5,9,1,4.47213595499958,6
"125","43R",2022-09-02,"n-A",125,6,22,21,17,"L","L",1,0.884,1,17,22,21,6,8,9,9,1,8.06225774829855,9
"126","43R",2022-09-02,"n-A",126,6,14,21,5,"L","L",1,1.177,1,5,14,21,6,2,6,9,1,8.60232526704263,12
"127","43R",2022-09-02,"n-A",127,12,6,17,21,"R","L",0,0.509,1,17,12,21,6,8,5,9,1,4.12310562561766,5
"128","43R",2022-09-02,"n-A",128,6,12,21,5,"L","L",1,0.61,1,5,12,21,6,2,5,9,1,8.06225774829855,11
"129","43R",2022-09-02,"n-A",129,6,10,21,6,"L","R",0,1.461,1,6,10,21,6,3,4,9,1,6.70820393249937,9
"130","43R",2022-09-02,"n-A",130,10,6,11,21,"R","R",1,1.057,1,11,10,21,6,6,4,9,1,4.24264068711928,6
"131","43R",2022-09-02,"n-A",131,6,14,21,21,"L","L",1,0.768,1,21,14,21,6,9,6,9,1,5,5
"132","43R",2022-09-02,"n-A",132,6,7,21,4,"L","L",1,0.476,1,4,7,21,6,1,2,9,1,8.06225774829855,9
"133","43R",2022-09-02,"n-A",133,12,6,11,21,"R","R",1,1.293,1,11,12,21,6,6,5,9,1,5,7
"134","43R",2022-09-02,"n-A",134,19,6,6,21,"R","R",1,0.58,1,6,19,21,6,3,8,9,1,9.21954445729289,13
"135","43R",2022-09-02,"n-A",135,6,6,21,6,"L","L",1,0.66,1,6,6,21,6,3,1,9,1,6,6
"136","43R",2022-09-02,"n-A",136,6,8,21,21,"L","L",1,0.701,1,21,8,21,6,9,3,9,1,2,2
"137","43R",2022-09-02,"n-A",137,6,12,21,17,"L","L",1,0.752,1,17,12,21,6,8,5,9,1,4.12310562561766,5
"138","43R",2022-09-02,"n-A",138,8,6,4,21,"R","R",1,1.054,1,4,8,21,6,1,3,9,1,8.24621125123532,10
"139","43R",2022-09-02,"n-A",139,8,6,6,21,"R","R",1,1.006,1,6,8,21,6,3,3,9,1,6.32455532033676,8
"140","43R",2022-09-02,"n-A",140,6,16,21,5,"L","L",1,0.68,1,5,16,21,6,2,7,9,1,9.21954445729289,13
"141","43R",2022-09-02,"n-A",141,6,16,21,14,"L","R",0,0.721,1,14,16,21,6,7,7,9,1,6.32455532033676,8
"142","43R",2022-09-02,"n-A",142,6,22,21,4,"L","L",1,0.937,1,4,22,21,6,1,9,9,1,11.3137084989848,16
"143","43R",2022-09-02,"n-A",143,10,6,9,21,"R","R",1,0.619,1,9,10,21,6,5,4,9,1,5,7
"144","43R",2022-09-02,"n-A",144,6,8,21,5,"L","L",1,0.53,1,5,8,21,6,2,3,9,1,7.28010988928052,9
"145","43R",2022-09-02,"n-A",145,6,6,17,21,"R","R",1,0.84,1,17,6,21,6,8,1,9,1,1,1
"146","43R",2022-09-02,"n-A",146,6,19,21,21,"L","L",1,0.769,1,21,19,21,6,9,8,9,1,7,7
"147","43R",2022-09-02,"n-A",147,6,6,21,11,"L","L",1,0.521,1,11,6,21,6,6,1,9,1,3,3
"148","43R",2022-09-02,"n-A",148,6,12,21,7,"L","L",1,0.681,1,7,12,21,6,4,5,9,1,6.40312423743285,9
"149","43R",2022-09-02,"n-A",149,6,7,21,5,"L","L",1,0.863,1,5,7,21,6,2,2,9,1,7.07106781186548,8
"150","43R",2022-09-02,"n-A",150,6,22,21,6,"L","L",1,3.369,1,6,22,21,6,3,9,9,1,10,14
"151","43R",2022-09-02,"n-A",151,14,6,5,21,"R","R",1,1.385,1,5,14,21,6,2,6,9,1,8.60232526704263,12
"152","43R",2022-09-02,"n-A",152,14,6,9,21,"R","R",1,1.533,1,9,14,21,6,5,6,9,1,6.40312423743285,9
"153","43R",2022-09-02,"n-A",153,6,14,21,14,"L","L",1,1.817,1,14,14,21,6,7,6,9,1,5.3851648071345,7
"154","43R",2022-09-02,"n-A",154,22,6,21,21,"R","R",1,0.065,1,21,22,21,6,9,9,9,1,8,8
"155","43R",2022-09-02,"n-A",155,19,6,14,21,"R","R",1,0.993,1,14,19,21,6,7,8,9,1,7.28010988928052,9
"156","43R",2022-09-02,"n-A",156,7,6,6,21,"R","L",0,0.661,1,6,7,21,6,3,2,9,1,6.08276253029822,7
"157","43R",2022-09-02,"n-A",157,14,6,17,21,"R","R",1,0.597,1,17,14,21,6,8,6,9,1,5.09901951359278,6
"158","43R",2022-09-02,"n-A",158,6,14,21,9,"L","L",1,1.553,1,9,14,21,6,5,6,9,1,6.40312423743285,9
"159","43R",2022-09-02,"n-A",159,6,7,21,14,"L","L",1,0.63,1,14,7,21,6,7,2,9,1,2.23606797749979,3
"160","43R",2022-09-02,"n-A",160,6,6,21,5,"L","L",1,1.729,1,5,6,21,6,2,1,9,1,7,7
"161","43R",2022-09-03,"n-A",1,6,22,21,14,"L","R",0,6.031,2,14,22,21,6,7,9,9,1,8.24621125123532,10
"162","43R",2022-09-03,"n-A",2,12,6,6,21,"R","L",0,1.279,2,6,12,21,6,3,5,9,1,7.21110255092798,10
"163","43R",2022-09-03,"n-A",3,6,16,21,11,"L","L",1,0.3,2,11,16,21,6,6,7,9,1,6.70820393249937,9
"164","43R",2022-09-03,"n-A",4,12,6,9,21,"R","L",0,0.52,2,9,12,21,6,5,5,9,1,5.65685424949238,8
"165","43R",2022-09-03,"n-A",5,7,6,14,21,"R","L",0,0.377,2,14,7,21,6,7,2,9,1,2.23606797749979,3
"166","43R",2022-09-03,"n-A",6,6,12,21,11,"L","R",0,0.786,2,11,12,21,6,6,5,9,1,5,7
"167","43R",2022-09-03,"n-A",7,6,19,21,17,"L","L",1,1.756,2,17,19,21,6,8,8,9,1,7.07106781186548,8
"168","43R",2022-09-03,"n-A",8,6,14,21,7,"L","L",1,1.241,2,7,14,21,6,4,6,9,1,7.07106781186548,10
"169","43R",2022-09-03,"n-A",9,16,6,17,21,"R","L",0,0.629,2,17,16,21,6,8,7,9,1,6.08276253029822,7
"170","43R",2022-09-03,"n-A",10,6,16,21,5,"L","L",1,1.58,2,5,16,21,6,2,7,9,1,9.21954445729289,13
"171","43R",2022-09-03,"n-A",11,6,22,21,5,"L","L",1,0.489,2,5,22,21,6,2,9,9,1,10.6301458127346,15
"172","43R",2022-09-03,"n-A",12,7,6,4,21,"R","R",1,0.997,2,4,7,21,6,1,2,9,1,8.06225774829855,9
"173","43R",2022-09-03,"n-A",13,6,22,21,7,"L","L",1,1.004,2,7,22,21,6,4,9,9,1,9.4339811320566,13
"174","43R",2022-09-03,"n-A",14,6,22,21,21,"L","L",1,4.303,2,21,22,21,6,9,9,9,1,8,8
"175","43R",2022-09-03,"n-A",15,6,22,21,11,"L","L",1,1.948,2,11,22,21,6,6,9,9,1,8.54400374531753,11
"176","43R",2022-09-03,"n-A",16,6,12,21,9,"L","L",1,2.105,2,9,12,21,6,5,5,9,1,5.65685424949238,8
"177","43R",2022-09-03,"n-A",17,8,6,7,21,"R","L",0,1.36,2,7,8,21,6,4,3,9,1,5.3851648071345,7
"178","43R",2022-09-03,"n-A",18,6,12,21,5,"L","L",1,1.753,2,5,12,21,6,2,5,9,1,8.06225774829855,11
"179","43R",2022-09-03,"n-A",19,6,14,21,14,"L","L",1,1.076,2,14,14,21,6,7,6,9,1,5.3851648071345,7
"180","43R",2022-09-03,"n-A",20,6,14,21,9,"L","L",1,1.809,2,9,14,21,6,5,6,9,1,6.40312423743285,9
"181","43R",2022-09-03,"n-A",21,6,22,21,6,"L","L",1,1.721,2,6,22,21,6,3,9,9,1,10,14
"182","43R",2022-09-03,"n-A",22,6,16,21,14,"L","L",1,0.577,2,14,16,21,6,7,7,9,1,6.32455532033676,8
"183","43R",2022-09-03,"n-A",23,6,6,9,21,"R","L",0,1.693,2,9,6,21,6,5,1,9,1,4,4
"184","43R",2022-09-03,"n-A",24,19,6,14,21,"R","R",1,0.476,2,14,19,21,6,7,8,9,1,7.28010988928052,9
"185","43R",2022-09-03,"n-A",25,8,6,21,21,"R","L",0,1.585,2,21,8,21,6,9,3,9,1,2,2
"186","43R",2022-09-03,"n-A",26,19,6,4,21,"R","R",1,2.541,2,4,19,21,6,1,8,9,1,10.6301458127346,15
"187","43R",2022-09-03,"n-A",27,6,8,21,11,"L","L",1,0.908,2,11,8,21,6,6,3,9,1,3.60555127546399,5
"188","43R",2022-09-03,"n-A",28,6,8,21,17,"L","R",0,0.593,2,17,8,21,6,8,3,9,1,2.23606797749979,3
"189","43R",2022-09-03,"n-A",29,10,6,17,21,"R","R",1,1.116,2,17,10,21,6,8,4,9,1,3.16227766016838,4
"190","43R",2022-09-03,"n-A",30,6,16,21,4,"L","L",1,0.773,2,4,16,21,6,1,7,9,1,10,14
"191","43R",2022-09-03,"n-A",31,6,6,7,21,"R","L",0,0.753,2,7,6,21,6,4,1,9,1,5,5
"192","43R",2022-09-03,"n-A",32,12,6,17,21,"R","R",1,0.676,2,17,12,21,6,8,5,9,1,4.12310562561766,5
"193","43R",2022-09-03,"n-A",33,6,8,21,5,"L","L",1,0.669,2,5,8,21,6,2,3,9,1,7.28010988928052,9
"194","43R",2022-09-03,"n-A",34,6,12,21,6,"L","L",1,1.253,2,6,12,21,6,3,5,9,1,7.21110255092798,10
"195","43R",2022-09-03,"n-A",35,22,6,11,21,"R","R",1,0.808,2,11,22,21,6,6,9,9,1,8.54400374531753,11
"196","43R",2022-09-03,"n-A",36,14,6,9,21,"R","R",1,0.734,2,9,14,21,6,5,6,9,1,6.40312423743285,9
"197","43R",2022-09-03,"n-A",37,6,8,21,7,"L","R",0,1.313,2,7,8,21,6,4,3,9,1,5.3851648071345,7
"198","43R",2022-09-03,"n-A",38,8,6,4,21,"R","R",1,1.827,2,4,8,21,6,1,3,9,1,8.24621125123532,10
"199","43R",2022-09-03,"n-A",39,6,6,14,21,"R","L",0,0.949,2,14,6,21,6,7,1,9,1,2,2
"200","43R",2022-09-03,"n-A",40,7,6,6,21,"R","R",1,0.513,2,6,7,21,6,3,2,9,1,6.08276253029822,7
"201","43R",2022-09-03,"n-A",41,6,10,21,7,"L","L",1,0.626,2,7,10,21,6,4,4,9,1,5.8309518948453,8
"202","43R",2022-09-03,"n-A",42,6,19,21,7,"L","R",0,1.209,2,7,19,21,6,4,8,9,1,8.60232526704263,12
"203","43R",2022-09-03,"n-A",43,6,10,21,6,"L","L",1,1.127,2,6,10,21,6,3,4,9,1,6.70820393249937,9
"204","43R",2022-09-03,"n-A",44,16,6,7,21,"R","L",0,0.657,2,7,16,21,6,4,7,9,1,7.81024967590665,11
"205","43R",2022-09-03,"n-A",45,16,6,21,21,"R","L",0,0.485,2,21,16,21,6,9,7,9,1,6,6
"206","43R",2022-09-03,"n-A",46,22,6,6,21,"R","R",1,0.822,2,6,22,21,6,3,9,9,1,10,14
"207","43R",2022-09-03,"n-A",47,7,6,11,21,"R","R",1,0.831,2,11,7,21,6,6,2,9,1,3.16227766016838,4
"208","43R",2022-09-03,"n-A",48,12,6,5,21,"R","R",1,0.89,2,5,12,21,6,2,5,9,1,8.06225774829855,11
"209","43R",2022-09-03,"n-A",49,22,6,5,21,"R","R",1,0.744,2,5,22,21,6,2,9,9,1,10.6301458127346,15
"210","43R",2022-09-03,"n-A",50,14,6,11,21,"R","R",1,0.741,2,11,14,21,6,6,6,9,1,5.8309518948453,8
"211","43R",2022-09-03,"n-A",51,6,14,21,4,"L","L",1,0.864,2,4,14,21,6,1,6,9,1,9.4339811320566,13
"212","43R",2022-09-03,"n-A",52,6,19,21,5,"L","L",1,0.491,2,5,19,21,6,2,8,9,1,9.89949493661167,14
"213","43R",2022-09-03,"n-A",53,6,7,21,17,"L","L",1,0.394,2,17,7,21,6,8,2,9,1,1.4142135623731,2
"214","43R",2022-09-03,"n-A",54,6,19,21,14,"L","L",1,2.317,2,14,19,21,6,7,8,9,1,7.28010988928052,9
"215","43R",2022-09-03,"n-A",55,10,6,5,21,"R","R",1,4.108,2,5,10,21,6,2,4,9,1,7.61577310586391,10
"216","43R",2022-09-03,"n-A",56,19,6,9,21,"R","R",1,0.667,2,9,19,21,6,5,8,9,1,8.06225774829855,11
"217","43R",2022-09-03,"n-A",57,22,6,7,21,"R","R",1,1.016,2,7,22,21,6,4,9,9,1,9.4339811320566,13
"218","43R",2022-09-03,"n-A",58,6,6,4,21,"R","R",1,0.512,2,4,6,21,6,1,1,9,1,8,8
"219","43R",2022-09-03,"n-A",59,6,12,21,4,"L","L",1,1.116,2,4,12,21,6,1,5,9,1,8.94427190999916,12
"220","43R",2022-09-03,"n-A",60,22,6,4,21,"R","R",1,0.704,2,4,22,21,6,1,9,9,1,11.3137084989848,16
"221","43R",2022-09-03,"n-A",61,14,6,4,21,"R","R",1,0.532,2,4,14,21,6,1,6,9,1,9.4339811320566,13
"222","43R",2022-09-03,"n-A",62,6,12,21,7,"L","L",1,0.696,2,7,12,21,6,4,5,9,1,6.40312423743285,9
"223","43R",2022-09-03,"n-A",63,19,6,11,21,"R","R",1,1.905,2,11,19,21,6,6,8,9,1,7.61577310586391,10
"224","43R",2022-09-03,"n-A",64,14,6,5,21,"R","R",1,0.612,2,5,14,21,6,2,6,9,1,8.60232526704263,12
"225","43R",2022-09-03,"n-A",65,12,6,11,21,"R","R",1,1.237,2,11,12,21,6,6,5,9,1,5,7
"226","43R",2022-09-03,"n-A",66,6,12,21,21,"L","L",1,0.432,2,21,12,21,6,9,5,9,1,4,4
"227","43R",2022-09-03,"n-A",67,19,6,5,21,"R","R",1,0.684,2,5,19,21,6,2,8,9,1,9.89949493661167,14
"228","43R",2022-09-03,"n-A",68,6,16,21,6,"L","L",1,0.468,2,6,16,21,6,3,7,9,1,8.48528137423857,12
"229","43R",2022-09-03,"n-A",69,6,22,21,4,"L","L",1,0.593,2,4,22,21,6,1,9,9,1,11.3137084989848,16
"230","43R",2022-09-03,"n-A",70,6,22,21,9,"L","L",1,1.292,2,9,22,21,6,5,9,9,1,8.94427190999916,12
"231","43R",2022-09-03,"n-A",71,6,7,21,11,"L","R",0,0.537,2,11,7,21,6,6,2,9,1,3.16227766016838,4
"232","43R",2022-09-03,"n-A",72,6,6,21,7,"L","R",0,1.328,2,7,6,21,6,4,1,9,1,5,5
"233","43R",2022-09-03,"n-A",73,10,6,14,21,"R","R",1,0.34,2,14,10,21,6,7,4,9,1,3.60555127546399,5
"234","43R",2022-09-03,"n-A",74,19,6,21,21,"R","L",0,0.496,2,21,19,21,6,9,8,9,1,7,7
"235","43R",2022-09-03,"n-A",75,14,6,7,21,"R","R",1,0.668,2,7,14,21,6,4,6,9,1,7.07106781186548,10
"236","43R",2022-09-03,"n-A",76,6,10,21,17,"L","L",1,1.449,2,17,10,21,6,8,4,9,1,3.16227766016838,4
"237","43R",2022-09-03,"n-A",77,6,6,21,11,"L","L",1,0.54,2,11,6,21,6,6,1,9,1,3,3
"238","43R",2022-09-03,"n-A",78,6,12,21,17,"L","L",1,1.032,2,17,12,21,6,8,5,9,1,4.12310562561766,5
"239","43R",2022-09-03,"n-A",79,16,6,6,21,"R","R",1,0.565,2,6,16,21,6,3,7,9,1,8.48528137423857,12
"240","43R",2022-09-03,"n-A",80,6,8,21,21,"L","L",1,0.354,2,21,8,21,6,9,3,9,1,2,2
"241","43R",2022-09-03,"n-A",81,6,7,21,21,"L","L",1,3.657,2,21,7,21,6,9,2,9,1,1,1
"242","43R",2022-09-03,"n-A",82,7,6,5,21,"R","R",1,0.576,2,5,7,21,6,2,2,9,1,7.07106781186548,8
"243","43R",2022-09-03,"n-A",83,19,6,17,21,"R","R",1,1.149,2,17,19,21,6,8,8,9,1,7.07106781186548,8
"244","43R",2022-09-03,"n-A",84,16,6,11,21,"R","R",1,1.14,2,11,16,21,6,6,7,9,1,6.70820393249937,9
"245","43R",2022-09-03,"n-A",85,7,6,7,21,"R","R",1,0.697,2,7,7,21,6,4,2,9,1,5.09901951359278,6
"246","43R",2022-09-03,"n-A",86,6,6,21,9,"L","L",1,0.777,2,9,6,21,6,5,1,9,1,4,4
"247","43R",2022-09-03,"n-A",87,12,6,21,21,"R","R",1,1.007,2,21,12,21,6,9,5,9,1,4,4
"248","43R",2022-09-03,"n-A",88,6,8,21,4,"L","L",1,1.237,2,4,8,21,6,1,3,9,1,8.24621125123532,10
"249","43R",2022-09-03,"n-A",89,8,6,6,21,"R","R",1,2.561,2,6,8,21,6,3,3,9,1,6.32455532033676,8
"250","43R",2022-09-03,"n-A",90,10,6,6,21,"R","R",1,0.696,2,6,10,21,6,3,4,9,1,6.70820393249937,9
"251","43R",2022-09-03,"n-A",91,6,8,21,9,"L","L",1,0.916,2,9,8,21,6,5,3,9,1,4.47213595499958,6
"252","43R",2022-09-03,"n-A",92,6,14,21,17,"L","R",0,0.764,2,17,14,21,6,8,6,9,1,5.09901951359278,6
"253","43R",2022-09-03,"n-A",93,6,16,21,17,"L","L",1,1.201,2,17,16,21,6,8,7,9,1,6.08276253029822,7
"254","43R",2022-09-03,"n-A",94,6,12,21,14,"L","L",1,0.852,2,14,12,21,6,7,5,9,1,4.47213595499958,6
"255","43R",2022-09-03,"n-A",95,19,6,7,21,"R","R",1,0.512,2,7,19,21,6,4,8,9,1,8.60232526704263,12
"256","43R",2022-09-03,"n-A",96,6,6,11,21,"R","R",1,1.237,2,11,6,21,6,6,1,9,1,3,3
"257","43R",2022-09-03,"n-A",97,22,6,9,21,"R","R",1,0.752,2,9,22,21,6,5,9,9,1,8.94427190999916,12
"258","43R",2022-09-03,"n-A",98,6,7,21,6,"L","L",1,0.505,2,6,7,21,6,3,2,9,1,6.08276253029822,7
"259","43R",2022-09-03,"n-A",99,6,6,6,21,"R","R",1,0.52,2,6,6,21,6,3,1,9,1,6,6
"260","43R",2022-09-03,"n-A",100,22,6,17,21,"R","R",1,1.613,2,17,22,21,6,8,9,9,1,8.06225774829855,9
"261","43R",2022-09-03,"n-A",101,8,6,5,21,"R","R",1,0.744,2,5,8,21,6,2,3,9,1,7.28010988928052,9
"262","43R",2022-09-03,"n-A",102,6,10,21,4,"L","L",1,0.537,2,4,10,21,6,1,4,9,1,8.54400374531753,11
"263","43R",2022-09-03,"n-A",103,6,10,21,11,"L","L",1,2.476,2,11,10,21,6,6,4,9,1,4.24264068711928,6
"264","43R",2022-09-03,"n-A",104,6,14,21,11,"L","L",1,0.519,2,11,14,21,6,6,6,9,1,5.8309518948453,8
"265","43R",2022-09-03,"n-A",105,16,6,4,21,"R","R",1,0.49,2,4,16,21,6,1,7,9,1,10,14
"266","43R",2022-09-03,"n-A",106,6,16,21,21,"L","L",1,0.901,2,21,16,21,6,9,7,9,1,6,6
"267","43R",2022-09-03,"n-A",107,6,6,21,6,"L","L",1,0.541,2,6,6,21,6,3,1,9,1,6,6
"268","43R",2022-09-03,"n-A",108,22,6,21,21,"R","R",1,1.732,2,21,22,21,6,9,9,9,1,8,8
"269","43R",2022-09-03,"n-A",109,19,6,6,21,"R","R",1,0.56,2,6,19,21,6,3,8,9,1,9.21954445729289,13
"270","43R",2022-09-03,"n-A",110,14,6,21,21,"R","R",1,1.137,2,21,14,21,6,9,6,9,1,5,5
"271","43R",2022-09-03,"n-A",111,6,7,21,4,"L","L",1,0.619,2,4,7,21,6,1,2,9,1,8.06225774829855,9
"272","43R",2022-09-03,"n-A",112,7,6,9,21,"R","R",1,0.545,2,9,7,21,6,5,2,9,1,4.12310562561766,5
"273","43R",2022-09-03,"n-A",113,6,19,21,6,"L","L",1,1.748,2,6,19,21,6,3,8,9,1,9.21954445729289,13
"274","43R",2022-09-03,"n-A",114,6,22,21,17,"L","L",1,0.588,2,17,22,21,6,8,9,9,1,8.06225774829855,9
"275","43R",2022-09-03,"n-A",115,6,19,21,4,"L","L",1,0.381,2,4,19,21,6,1,8,9,1,10.6301458127346,15
"276","43R",2022-09-03,"n-A",116,7,6,17,21,"R","L",0,0.881,2,17,7,21,6,8,2,9,1,1.4142135623731,2
"277","43R",2022-09-03,"n-A",117,6,14,21,21,"L","R",0,1.589,2,21,14,21,6,9,6,9,1,5,5
"278","43R",2022-09-03,"n-A",118,8,6,9,21,"R","R",1,1.221,2,9,8,21,6,5,3,9,1,4.47213595499958,6
"279","43R",2022-09-03,"n-A",119,6,6,5,21,"R","R",1,0.877,2,5,6,21,6,2,1,9,1,7,7
"280","43R",2022-09-03,"n-A",120,6,7,21,9,"L","L",1,1.701,2,9,7,21,6,5,2,9,1,4.12310562561766,5
"281","43R",2022-09-03,"n-A",121,6,7,21,14,"L","R",0,0.829,2,14,7,21,6,7,2,9,1,2.23606797749979,3
"282","43R",2022-09-03,"n-A",122,10,6,11,21,"R","R",1,0.961,2,11,10,21,6,6,4,9,1,4.24264068711928,6
"283","43R",2022-09-03,"n-A",123,7,6,21,21,"R","R",1,0.865,2,21,7,21,6,9,2,9,1,1,1
"284","43R",2022-09-03,"n-A",124,6,16,21,9,"L","L",1,0.488,2,9,16,21,6,5,7,9,1,7.21110255092798,10
"285","43R",2022-09-03,"n-A",125,6,16,21,7,"L","L",1,0.573,2,7,16,21,6,4,7,9,1,7.81024967590665,11
"286","43R",2022-09-03,"n-A",126,6,14,21,5,"L","L",1,1.959,2,5,14,21,6,2,6,9,1,8.60232526704263,12
"287","43R",2022-09-03,"n-A",127,12,6,4,21,"R","R",1,0.677,2,4,12,21,6,1,5,9,1,8.94427190999916,12
"288","43R",2022-09-03,"n-A",128,6,19,21,9,"L","L",1,1.617,2,9,19,21,6,5,8,9,1,8.06225774829855,11
"289","43R",2022-09-03,"n-A",129,6,6,21,14,"L","R",0,1.464,2,14,6,21,6,7,1,9,1,2,2
"290","43R",2022-09-03,"n-A",130,8,6,11,21,"R","L",0,0.481,2,11,8,21,6,6,3,9,1,3.60555127546399,5
"291","43R",2022-09-03,"n-A",131,16,6,9,21,"R","R",1,1.271,2,9,16,21,6,5,7,9,1,7.21110255092798,10
"292","43R",2022-09-03,"n-A",132,6,6,21,5,"L","R",0,0.838,2,5,6,21,6,2,1,9,1,7,7
"293","43R",2022-09-03,"n-A",133,10,6,4,21,"R","L",0,0.341,2,4,10,21,6,1,4,9,1,8.54400374531753,11
"294","43R",2022-09-03,"n-A",134,10,6,7,21,"R","R",1,1.21,2,7,10,21,6,4,4,9,1,5.8309518948453,8
"295","43R",2022-09-03,"n-A",135,6,8,21,14,"L","L",1,0.829,2,14,8,21,6,7,3,9,1,2.82842712474619,4
"296","43R",2022-09-03,"n-A",136,6,10,21,9,"L","L",1,0.572,2,9,10,21,6,5,4,9,1,5,7
"297","43R",2022-09-03,"n-A",137,6,6,21,17,"L","R",0,0.657,2,17,6,21,6,8,1,9,1,1,1
"298","43R",2022-09-03,"n-A",138,16,6,14,21,"R","R",1,1.06,2,14,16,21,6,7,7,9,1,6.32455532033676,8
"299","43R",2022-09-03,"n-A",139,6,7,21,7,"L","L",1,0.913,2,7,7,21,6,4,2,9,1,5.09901951359278,6
"300","43R",2022-09-03,"n-A",140,10,6,9,21,"R","R",1,1.46,2,9,10,21,6,5,4,9,1,5,7
"301","43R",2022-09-03,"n-A",141,14,6,6,21,"R","R",1,0.781,2,6,14,21,6,3,6,9,1,7.81024967590665,11
"302","43R",2022-09-03,"n-A",142,6,6,21,4,"L","L",1,0.529,2,4,6,21,6,1,1,9,1,8,8
"303","43R",2022-09-03,"n-A",143,6,10,21,14,"L","L",1,0.628,2,14,10,21,6,7,4,9,1,3.60555127546399,5
"304","43R",2022-09-03,"n-A",144,6,19,21,21,"L","L",1,1.404,2,21,19,21,6,9,8,9,1,7,7
"305","43R",2022-09-03,"n-A",145,14,6,14,21,"R","L",0,0.837,2,14,14,21,6,7,6,9,1,5.3851648071345,7
"306","43R",2022-09-03,"n-A",146,6,6,17,21,"R","R",1,0.385,2,17,6,21,6,8,1,9,1,1,1
"307","43R",2022-09-03,"n-A",147,6,10,21,21,"L","L",1,0.656,2,21,10,21,6,9,4,9,1,3,3
"308","43R",2022-09-03,"n-A",148,10,6,21,21,"R","L",0,0.448,2,21,10,21,6,9,4,9,1,3,3
"309","43R",2022-09-03,"n-A",149,12,6,7,21,"R","R",1,0.693,2,7,12,21,6,4,5,9,1,6.40312423743285,9
"310","43R",2022-09-03,"n-A",150,6,19,21,11,"L","L",1,1.373,2,11,19,21,6,6,8,9,1,7.61577310586391,10
"311","43R",2022-09-03,"n-A",151,22,6,14,21,"R","R",1,0.68,2,14,22,21,6,7,9,9,1,8.24621125123532,10
"312","43R",2022-09-03,"n-A",152,8,6,17,21,"R","R",1,0.868,2,17,8,21,6,8,3,9,1,2.23606797749979,3
"313","43R",2022-09-03,"n-A",153,6,7,21,5,"L","L",1,0.481,2,5,7,21,6,2,2,9,1,7.07106781186548,8
"314","43R",2022-09-03,"n-A",154,6,8,21,6,"L","L",1,1.252,2,6,8,21,6,3,3,9,1,6.32455532033676,8
"315","43R",2022-09-03,"n-A",155,6,14,21,6,"L","L",1,0.485,2,6,14,21,6,3,6,9,1,7.81024967590665,11
"316","43R",2022-09-03,"n-A",156,16,6,5,21,"R","R",1,0.537,2,5,16,21,6,2,7,9,1,9.21954445729289,13
"317","43R",2022-09-03,"n-A",157,6,10,21,5,"L","L",1,0.757,2,5,10,21,6,2,4,9,1,7.61577310586391,10
"318","43R",2022-09-03,"n-A",158,12,6,14,21,"R","L",0,0.844,2,14,12,21,6,7,5,9,1,4.47213595499958,6
"319","43R",2022-09-03,"n-A",159,8,6,14,21,"R","L",0,0.717,2,14,8,21,6,7,3,9,1,2.82842712474619,4
"320","43R",2022-09-03,"n-A",160,14,6,17,21,"R","R",1,0.691,2,17,14,21,6,8,6,9,1,5.09901951359278,6
"321","43R",2022-09-04,"n-A",1,6,12,21,17,"L","R",0,4.857,3,17,12,21,6,8,5,9,1,4.12310562561766,5
"322","43R",2022-09-04,"n-A",2,6,22,21,4,"L","L",1,0.577,3,4,22,21,6,1,9,9,1,11.3137084989848,16
"323","43R",2022-09-04,"n-A",3,6,10,21,6,"L","L",1,2.532,3,6,10,21,6,3,4,9,1,6.70820393249937,9
"324","43R",2022-09-04,"n-A",4,6,7,21,11,"L","L",1,0.31,3,11,7,21,6,6,2,9,1,3.16227766016838,4
"325","43R",2022-09-04,"n-A",5,6,19,21,11,"L","L",1,0.47,3,11,19,21,6,6,8,9,1,7.61577310586391,10
"326","43R",2022-09-04,"n-A",6,6,8,21,7,"L","L",1,0.814,3,7,8,21,6,4,3,9,1,5.3851648071345,7
"327","43R",2022-09-04,"n-A",7,22,6,6,21,"R","L",0,0.356,3,6,22,21,6,3,9,9,1,10,14
"328","43R",2022-09-04,"n-A",8,22,6,5,21,"R","R",1,0.378,3,5,22,21,6,2,9,9,1,10.6301458127346,15
"329","43R",2022-09-04,"n-A",9,19,6,4,21,"R","R",1,0.33,3,4,19,21,6,1,8,9,1,10.6301458127346,15
"330","43R",2022-09-04,"n-A",10,6,12,21,14,"L","L",1,0.95,3,14,12,21,6,7,5,9,1,4.47213595499958,6
"331","43R",2022-09-04,"n-A",11,8,6,21,21,"R","L",0,0.557,3,21,8,21,6,9,3,9,1,2,2
"332","43R",2022-09-04,"n-A",12,10,6,7,21,"R","R",1,1.437,3,7,10,21,6,4,4,9,1,5.8309518948453,8
"333","43R",2022-09-04,"n-A",13,6,14,21,6,"L","L",1,1.546,3,6,14,21,6,3,6,9,1,7.81024967590665,11
"334","43R",2022-09-04,"n-A",14,14,6,11,21,"R","R",1,0.529,3,11,14,21,6,6,6,9,1,5.8309518948453,8
"335","43R",2022-09-04,"n-A",15,6,19,21,17,"L","L",1,0.394,3,17,19,21,6,8,8,9,1,7.07106781186548,8
"336","43R",2022-09-04,"n-A",16,6,22,21,7,"L","L",1,0.387,3,7,22,21,6,4,9,9,1,9.4339811320566,13
"337","43R",2022-09-04,"n-A",17,7,6,9,21,"R","R",1,1.352,3,9,7,21,6,5,2,9,1,4.12310562561766,5
"338","43R",2022-09-04,"n-A",18,12,6,14,21,"R","L",0,1.493,3,14,12,21,6,7,5,9,1,4.47213595499958,6
"339","43R",2022-09-04,"n-A",19,6,6,21,4,"L","L",1,1.153,3,4,6,21,6,1,1,9,1,8,8
"340","43R",2022-09-04,"n-A",20,6,22,21,5,"L","L",1,3.805,3,5,22,21,6,2,9,9,1,10.6301458127346,15
"341","43R",2022-09-04,"n-A",21,6,19,21,14,"L","L",1,1.23,3,14,19,21,6,7,8,9,1,7.28010988928052,9
"342","43R",2022-09-04,"n-A",22,6,7,21,9,"L","L",1,1.085,3,9,7,21,6,5,2,9,1,4.12310562561766,5
"343","43R",2022-09-04,"n-A",23,6,19,21,21,"L","L",1,0.499,3,21,19,21,6,9,8,9,1,7,7
"344","43R",2022-09-04,"n-A",24,14,6,14,21,"R","R",1,0.424,3,14,14,21,6,7,6,9,1,5.3851648071345,7
"345","43R",2022-09-04,"n-A",25,6,7,21,14,"L","L",1,0.622,3,14,7,21,6,7,2,9,1,2.23606797749979,3
"346","43R",2022-09-04,"n-A",26,6,16,21,21,"L","L",1,0.868,3,21,16,21,6,9,7,9,1,6,6
"347","43R",2022-09-04,"n-A",27,12,6,9,21,"R","R",1,0.988,3,9,12,21,6,5,5,9,1,5.65685424949238,8
"348","43R",2022-09-04,"n-A",28,12,6,6,21,"R","R",1,0.954,3,6,12,21,6,3,5,9,1,7.21110255092798,10
"349","43R",2022-09-04,"n-A",29,6,22,21,11,"L","L",1,1.81,3,11,22,21,6,6,9,9,1,8.54400374531753,11
"350","43R",2022-09-04,"n-A",30,10,6,21,21,"R","L",0,0.698,3,21,10,21,6,9,4,9,1,3,3
"351","43R",2022-09-04,"n-A",31,6,7,21,7,"L","L",1,2.967,3,7,7,21,6,4,2,9,1,5.09901951359278,6
"352","43R",2022-09-04,"n-A",32,7,6,14,21,"R","R",1,1.69,3,14,7,21,6,7,2,9,1,2.23606797749979,3
"353","43R",2022-09-04,"n-A",33,19,6,11,21,"R","R",1,0.978,3,11,19,21,6,6,8,9,1,7.61577310586391,10
"354","43R",2022-09-04,"n-A",34,7,6,5,21,"R","R",1,1.383,3,5,7,21,6,2,2,9,1,7.07106781186548,8
"355","43R",2022-09-04,"n-A",35,6,6,4,21,"R","R",1,0.669,3,4,6,21,6,1,1,9,1,8,8
"356","43R",2022-09-04,"n-A",36,22,6,14,21,"R","R",1,1.449,3,14,22,21,6,7,9,9,1,8.24621125123532,10
"357","43R",2022-09-04,"n-A",37,14,6,5,21,"R","R",1,0.842,3,5,14,21,6,2,6,9,1,8.60232526704263,12
"358","43R",2022-09-04,"n-A",38,6,16,21,7,"L","L",1,0.624,3,7,16,21,6,4,7,9,1,7.81024967590665,11
"359","43R",2022-09-04,"n-A",39,10,6,4,21,"R","R",1,0.987,3,4,10,21,6,1,4,9,1,8.54400374531753,11
"360","43R",2022-09-04,"n-A",40,6,10,21,4,"L","L",1,1.765,3,4,10,21,6,1,4,9,1,8.54400374531753,11
"361","43R",2022-09-04,"n-A",41,8,6,17,21,"R","R",1,0.617,3,17,8,21,6,8,3,9,1,2.23606797749979,3
"362","43R",2022-09-04,"n-A",42,12,6,7,21,"R","R",1,0.554,3,7,12,21,6,4,5,9,1,6.40312423743285,9
"363","43R",2022-09-04,"n-A",43,6,12,21,21,"L","L",1,0.601,3,21,12,21,6,9,5,9,1,4,4
"364","43R",2022-09-04,"n-A",44,19,6,9,21,"R","R",1,1.522,3,9,19,21,6,5,8,9,1,8.06225774829855,11
"365","43R",2022-09-04,"n-A",45,6,6,5,21,"R","R",1,0.946,3,5,6,21,6,2,1,9,1,7,7
"366","43R",2022-09-04,"n-A",46,16,6,6,21,"R","R",1,0.561,3,6,16,21,6,3,7,9,1,8.48528137423857,12
"367","43R",2022-09-04,"n-A",47,22,6,21,21,"R","R",1,1.082,3,21,22,21,6,9,9,9,1,8,8
"368","43R",2022-09-04,"n-A",48,6,7,21,6,"L","L",1,1.62,3,6,7,21,6,3,2,9,1,6.08276253029822,7
"369","43R",2022-09-04,"n-A",49,6,6,21,14,"L","L",1,1.357,3,14,6,21,6,7,1,9,1,2,2
"370","43R",2022-09-04,"n-A",50,6,14,21,7,"L","L",1,0.618,3,7,14,21,6,4,6,9,1,7.07106781186548,10
"371","43R",2022-09-04,"n-A",51,6,16,21,11,"L","L",1,1.336,3,11,16,21,6,6,7,9,1,6.70820393249937,9
"372","43R",2022-09-04,"n-A",52,6,8,21,6,"L","L",1,4.533,3,6,8,21,6,3,3,9,1,6.32455532033676,8
"373","43R",2022-09-04,"n-A",53,6,16,21,4,"L","R",0,0.581,3,4,16,21,6,1,7,9,1,10,14
"374","43R",2022-09-04,"n-A",54,14,6,17,21,"R","R",1,1.738,3,17,14,21,6,8,6,9,1,5.09901951359278,6
"375","43R",2022-09-04,"n-A",55,22,6,17,21,"R","R",1,1.601,3,17,22,21,6,8,9,9,1,8.06225774829855,9
"376","43R",2022-09-04,"n-A",56,6,6,21,17,"L","L",1,0.567,3,17,6,21,6,8,1,9,1,1,1
"377","43R",2022-09-04,"n-A",57,7,6,7,21,"R","R",1,1.082,3,7,7,21,6,4,2,9,1,5.09901951359278,6
"378","43R",2022-09-04,"n-A",58,22,6,7,21,"R","R",1,1.073,3,7,22,21,6,4,9,9,1,9.4339811320566,13
"379","43R",2022-09-04,"n-A",59,16,6,21,21,"R","R",1,1.416,3,21,16,21,6,9,7,9,1,6,6
"380","43R",2022-09-04,"n-A",60,6,6,9,21,"R","R",1,0.933,3,9,6,21,6,5,1,9,1,4,4
"381","43R",2022-09-04,"n-A",61,6,22,21,14,"L","L",1,0.31,3,14,22,21,6,7,9,9,1,8.24621125123532,10
"382","43R",2022-09-04,"n-A",62,22,6,9,21,"R","R",1,0.558,3,9,22,21,6,5,9,9,1,8.94427190999916,12
"383","43R",2022-09-04,"n-A",63,12,6,11,21,"R","R",1,1.946,3,11,12,21,6,6,5,9,1,5,7
"384","43R",2022-09-04,"n-A",64,16,6,9,21,"R","R",1,0.537,3,9,16,21,6,5,7,9,1,7.21110255092798,10
"385","43R",2022-09-04,"n-A",65,6,10,21,9,"L","L",1,0.457,3,9,10,21,6,5,4,9,1,5,7
"386","43R",2022-09-04,"n-A",66,6,6,21,11,"L","L",1,0.671,3,11,6,21,6,6,1,9,1,3,3
"387","43R",2022-09-04,"n-A",67,14,6,7,21,"R","R",1,1.129,3,7,14,21,6,4,6,9,1,7.07106781186548,10
"388","43R",2022-09-04,"n-A",68,12,6,5,21,"R","R",1,0.563,3,5,12,21,6,2,5,9,1,8.06225774829855,11
"389","43R",2022-09-04,"n-A",69,6,22,21,21,"L","L",1,0.595,3,21,22,21,6,9,9,9,1,8,8
"390","43R",2022-09-04,"n-A",70,6,6,17,21,"R","R",1,5.468,3,17,6,21,6,8,1,9,1,1,1
"391","43R",2022-09-04,"n-A",71,6,7,21,5,"L","L",1,0.446,3,5,7,21,6,2,2,9,1,7.07106781186548,8
"392","43R",2022-09-04,"n-A",72,16,6,11,21,"R","R",1,0.824,3,11,16,21,6,6,7,9,1,6.70820393249937,9
"393","43R",2022-09-04,"n-A",73,6,8,21,5,"L","L",1,0.622,3,5,8,21,6,2,3,9,1,7.28010988928052,9
"394","43R",2022-09-04,"n-A",74,6,14,21,5,"L","L",1,1.266,3,5,14,21,6,2,6,9,1,8.60232526704263,12
"395","43R",2022-09-04,"n-A",75,6,7,21,17,"L","R",0,0.731,3,17,7,21,6,8,2,9,1,1.4142135623731,2
"396","43R",2022-09-04,"n-A",76,8,6,11,21,"R","R",1,2.554,3,11,8,21,6,6,3,9,1,3.60555127546399,5
"397","43R",2022-09-04,"n-A",77,6,16,21,14,"L","L",1,1.005,3,14,16,21,6,7,7,9,1,6.32455532033676,8
"398","43R",2022-09-04,"n-A",78,16,6,17,21,"R","R",1,0.986,3,17,16,21,6,8,7,9,1,6.08276253029822,7
"399","43R",2022-09-04,"n-A",79,16,6,5,21,"R","R",1,0.879,3,5,16,21,6,2,7,9,1,9.21954445729289,13
"400","43R",2022-09-04,"n-A",80,14,6,21,21,"R","R",1,0.99,3,21,14,21,6,9,6,9,1,5,5
"401","43R",2022-09-04,"n-A",81,6,10,21,17,"L","L",1,0.653,3,17,10,21,6,8,4,9,1,3.16227766016838,4
"402","43R",2022-09-04,"n-A",82,6,16,21,5,"L","L",1,0.646,3,5,16,21,6,2,7,9,1,9.21954445729289,13
"403","43R",2022-09-04,"n-A",83,10,6,6,21,"R","R",1,0.64,3,6,10,21,6,3,4,9,1,6.70820393249937,9
"404","43R",2022-09-04,"n-A",84,6,6,21,5,"L","L",1,0.787,3,5,6,21,6,2,1,9,1,7,7
"405","43R",2022-09-04,"n-A",85,8,6,6,21,"R","R",1,1.511,3,6,8,21,6,3,3,9,1,6.32455532033676,8
"406","43R",2022-09-04,"n-A",86,12,6,4,21,"R","R",1,0.569,3,4,12,21,6,1,5,9,1,8.94427190999916,12
"407","43R",2022-09-04,"n-A",87,6,12,21,6,"L","L",1,0.517,3,6,12,21,6,3,5,9,1,7.21110255092798,10
"408","43R",2022-09-04,"n-A",88,6,6,21,7,"L","L",1,0.485,3,7,6,21,6,4,1,9,1,5,5
"409","43R",2022-09-04,"n-A",89,10,6,14,21,"R","R",1,1.504,3,14,10,21,6,7,4,9,1,3.60555127546399,5
"410","43R",2022-09-04,"n-A",90,16,6,4,21,"R","R",1,0.596,3,4,16,21,6,1,7,9,1,10,14
"411","43R",2022-09-04,"n-A",91,6,10,21,21,"L","R",0,1.757,3,21,10,21,6,9,4,9,1,3,3
"412","43R",2022-09-04,"n-A",92,7,6,17,21,"R","L",0,1.201,3,17,7,21,6,8,2,9,1,1.4142135623731,2
"413","43R",2022-09-04,"n-A",93,14,6,4,21,"R","R",1,0.498,3,4,14,21,6,1,6,9,1,9.4339811320566,13
"414","43R",2022-09-04,"n-A",94,16,6,7,21,"R","R",1,0.545,3,7,16,21,6,4,7,9,1,7.81024967590665,11
"415","43R",2022-09-04,"n-A",95,6,19,21,9,"L","L",1,0.47,3,9,19,21,6,5,8,9,1,8.06225774829855,11
"416","43R",2022-09-04,"n-A",96,6,12,21,11,"L","L",1,0.789,3,11,12,21,6,6,5,9,1,5,7
"417","43R",2022-09-04,"n-A",97,10,6,9,21,"R","R",1,1.653,3,9,10,21,6,5,4,9,1,5,7
"418","43R",2022-09-04,"n-A",98,6,12,21,7,"L","L",1,0.497,3,7,12,21,6,4,5,9,1,6.40312423743285,9
"419","43R",2022-09-04,"n-A",99,6,19,21,5,"L","L",1,2.001,3,5,19,21,6,2,8,9,1,9.89949493661167,14
"420","43R",2022-09-04,"n-A",100,8,6,5,21,"R","R",1,0.547,3,5,8,21,6,2,3,9,1,7.28010988928052,9
"421","43R",2022-09-04,"n-A",101,6,8,21,14,"L","L",1,0.513,3,14,8,21,6,7,3,9,1,2.82842712474619,4
"422","43R",2022-09-04,"n-A",102,12,6,17,21,"R","L",0,0.498,3,17,12,21,6,8,5,9,1,4.12310562561766,5
"423","43R",2022-09-04,"n-A",103,14,6,9,21,"R","R",1,0.618,3,9,14,21,6,5,6,9,1,6.40312423743285,9
"424","43R",2022-09-04,"n-A",104,10,6,5,21,"R","R",1,0.62,3,5,10,21,6,2,4,9,1,7.61577310586391,10
"425","43R",2022-09-04,"n-A",105,6,8,21,11,"L","L",1,0.802,3,11,8,21,6,6,3,9,1,3.60555127546399,5
"426","43R",2022-09-04,"n-A",106,14,6,6,21,"R","R",1,0.593,3,6,14,21,6,3,6,9,1,7.81024967590665,11
"427","43R",2022-09-04,"n-A",107,12,6,21,21,"R","R",1,1.147,3,21,12,21,6,9,5,9,1,4,4
"428","43R",2022-09-04,"n-A",108,6,19,21,7,"L","L",1,0.657,3,7,19,21,6,4,8,9,1,8.60232526704263,12
"429","43R",2022-09-04,"n-A",109,7,6,6,21,"R","R",1,0.782,3,6,7,21,6,3,2,9,1,6.08276253029822,7
"430","43R",2022-09-04,"n-A",110,7,6,11,21,"R","R",1,0.777,3,11,7,21,6,6,2,9,1,3.16227766016838,4
"431","43R",2022-09-04,"n-A",111,10,6,17,21,"R","R",1,1.525,3,17,10,21,6,8,4,9,1,3.16227766016838,4
"432","43R",2022-09-04,"n-A",112,6,6,21,9,"L","L",1,0.65,3,9,6,21,6,5,1,9,1,4,4
"433","43R",2022-09-04,"n-A",113,6,6,7,21,"R","R",1,0.577,3,7,6,21,6,4,1,9,1,5,5
"434","43R",2022-09-04,"n-A",114,16,6,14,21,"R","R",1,0.514,3,14,16,21,6,7,7,9,1,6.32455532033676,8
"435","43R",2022-09-04,"n-A",115,6,16,21,17,"L","L",1,0.513,3,17,16,21,6,8,7,9,1,6.08276253029822,7
"436","43R",2022-09-04,"n-A",116,19,6,5,21,"R","R",1,0.513,3,5,19,21,6,2,8,9,1,9.89949493661167,14
"437","43R",2022-09-04,"n-A",117,6,7,21,21,"L","R",0,0.918,3,21,7,21,6,9,2,9,1,1,1
"438","43R",2022-09-04,"n-A",118,6,22,21,17,"L","L",1,0.862,3,17,22,21,6,8,9,9,1,8.06225774829855,9
"439","43R",2022-09-04,"n-A",119,6,6,21,6,"L","L",1,0.454,3,6,6,21,6,3,1,9,1,6,6
"440","43R",2022-09-04,"n-A",120,19,6,21,21,"R","R",1,1.814,3,21,19,21,6,9,8,9,1,7,7
"441","43R",2022-09-04,"n-A",121,6,19,21,6,"L","L",1,4.665,3,6,19,21,6,3,8,9,1,9.21954445729289,13
"442","43R",2022-09-04,"n-A",122,6,14,21,11,"L","L",1,0.371,3,11,14,21,6,6,6,9,1,5.8309518948453,8
"443","43R",2022-09-04,"n-A",123,6,14,21,9,"L","L",1,0.581,3,9,14,21,6,5,6,9,1,6.40312423743285,9
"444","43R",2022-09-04,"n-A",124,6,19,21,4,"L","L",1,0.717,3,4,19,21,6,1,8,9,1,10.6301458127346,15
"445","43R",2022-09-04,"n-A",125,19,6,17,21,"R","R",1,0.965,3,17,19,21,6,8,8,9,1,7.07106781186548,8
"446","43R",2022-09-04,"n-A",126,19,6,6,21,"R","R",1,0.681,3,6,19,21,6,3,8,9,1,9.21954445729289,13
"447","43R",2022-09-04,"n-A",127,8,6,14,21,"R","R",1,0.777,3,14,8,21,6,7,3,9,1,2.82842712474619,4
"448","43R",2022-09-04,"n-A",128,6,6,14,21,"R","R",1,0.438,3,14,6,21,6,7,1,9,1,2,2
"449","43R",2022-09-04,"n-A",129,6,16,21,6,"L","L",1,1.188,3,6,16,21,6,3,7,9,1,8.48528137423857,12
"450","43R",2022-09-04,"n-A",130,8,6,4,21,"R","R",1,1.302,3,4,8,21,6,1,3,9,1,8.24621125123532,10
"451","43R",2022-09-04,"n-A",131,6,10,21,11,"L","L",1,0.6,3,11,10,21,6,6,4,9,1,4.24264068711928,6
"452","43R",2022-09-04,"n-A",132,6,22,21,6,"L","L",1,0.867,3,6,22,21,6,3,9,9,1,10,14
"453","43R",2022-09-04,"n-A",133,7,6,4,21,"R","R",1,0.765,3,4,7,21,6,1,2,9,1,8.06225774829855,9
"454","43R",2022-09-04,"n-A",134,6,14,21,14,"L","L",1,1.601,3,14,14,21,6,7,6,9,1,5.3851648071345,7
"455","43R",2022-09-04,"n-A",135,6,8,21,17,"L","L",1,0.785,3,17,8,21,6,8,3,9,1,2.23606797749979,3
"456","43R",2022-09-04,"n-A",136,8,6,9,21,"R","R",1,1.085,3,9,8,21,6,5,3,9,1,4.47213595499958,6
"457","43R",2022-09-04,"n-A",137,22,6,4,21,"R","R",1,1.496,3,4,22,21,6,1,9,9,1,11.3137084989848,16
"458","43R",2022-09-04,"n-A",138,19,6,14,21,"R","R",1,0.565,3,14,19,21,6,7,8,9,1,7.28010988928052,9
"459","43R",2022-09-04,"n-A",139,6,10,21,7,"L","L",1,0.4,3,7,10,21,6,4,4,9,1,5.8309518948453,8
"460","43R",2022-09-04,"n-A",140,6,12,21,5,"L","L",1,1.753,3,5,12,21,6,2,5,9,1,8.06225774829855,11
"461","43R",2022-09-04,"n-A",141,6,6,6,21,"R","R",1,0.843,3,6,6,21,6,3,1,9,1,6,6
"462","43R",2022-09-04,"n-A",142,6,8,21,4,"L","L",1,0.903,3,4,8,21,6,1,3,9,1,8.24621125123532,10
"463","43R",2022-09-04,"n-A",143,6,10,21,14,"L","L",1,0.918,3,14,10,21,6,7,4,9,1,3.60555127546399,5
"464","43R",2022-09-04,"n-A",144,6,10,21,5,"L","L",1,0.888,3,5,10,21,6,2,4,9,1,7.61577310586391,10
"465","43R",2022-09-04,"n-A",145,6,16,21,9,"L","L",1,4.142,3,9,16,21,6,5,7,9,1,7.21110255092798,10
"466","43R",2022-09-04,"n-A",146,6,22,21,9,"L","L",1,0.474,3,9,22,21,6,5,9,9,1,8.94427190999916,12
"467","43R",2022-09-04,"n-A",147,6,6,11,21,"R","R",1,0.718,3,11,6,21,6,6,1,9,1,3,3
"468","43R",2022-09-04,"n-A",148,6,14,21,21,"L","L",1,0.606,3,21,14,21,6,9,6,9,1,5,5
"469","43R",2022-09-04,"n-A",149,6,8,21,21,"L","L",1,1.154,3,21,8,21,6,9,3,9,1,2,2
"470","43R",2022-09-04,"n-A",150,19,6,7,21,"R","R",1,1.041,3,7,19,21,6,4,8,9,1,8.60232526704263,12
"471","43R",2022-09-04,"n-A",151,6,8,21,9,"L","L",1,1.282,3,9,8,21,6,5,3,9,1,4.47213595499958,6
"472","43R",2022-09-04,"n-A",152,6,12,21,9,"L","L",1,1.046,3,9,12,21,6,5,5,9,1,5.65685424949238,8
"473","43R",2022-09-04,"n-A",153,6,14,21,17,"L","L",1,0.671,3,17,14,21,6,8,6,9,1,5.09901951359278,6
"474","43R",2022-09-04,"n-A",154,8,6,7,21,"R","R",1,1.819,3,7,8,21,6,4,3,9,1,5.3851648071345,7
"475","43R",2022-09-04,"n-A",155,6,12,21,4,"L","L",1,0.52,3,4,12,21,6,1,5,9,1,8.94427190999916,12
"476","43R",2022-09-04,"n-A",156,7,6,21,21,"R","L",0,0.742,3,21,7,21,6,9,2,9,1,1,1
"477","43R",2022-09-04,"n-A",157,10,6,11,21,"R","R",1,0.932,3,11,10,21,6,6,4,9,1,4.24264068711928,6
"478","43R",2022-09-04,"n-A",158,6,7,21,4,"L","L",1,0.495,3,4,7,21,6,1,2,9,1,8.06225774829855,9
"479","43R",2022-09-04,"n-A",159,22,6,11,21,"R","R",1,1.395,3,11,22,21,6,6,9,9,1,8.54400374531753,11
"480","43R",2022-09-04,"n-A",160,6,14,21,4,"L","L",1,1.002,3,4,14,21,6,1,6,9,1,9.4339811320566,13
"481","43R",2022-09-05,"n-A",1,22,6,5,21,"R","R",1,4.968,4,5,22,21,6,2,9,9,1,10.6301458127346,15
"482","43R",2022-09-05,"n-A",2,6,14,21,9,"L","R",0,4.954,4,9,14,21,6,5,6,9,1,6.40312423743285,9
"483","43R",2022-09-05,"n-A",3,8,6,11,21,"R","R",1,0.337,4,11,8,21,6,6,3,9,1,3.60555127546399,5
"484","43R",2022-09-05,"n-A",4,6,14,21,11,"L","L",1,0.398,4,11,14,21,6,6,6,9,1,5.8309518948453,8
"485","43R",2022-09-05,"n-A",5,6,19,21,4,"L","L",1,0.517,4,4,19,21,6,1,8,9,1,10.6301458127346,15
"486","43R",2022-09-05,"n-A",6,6,19,21,17,"L","L",1,0.673,4,17,19,21,6,8,8,9,1,7.07106781186548,8
"487","43R",2022-09-05,"n-A",7,10,6,14,21,"R","L",0,0.412,4,14,10,21,6,7,4,9,1,3.60555127546399,5
"488","43R",2022-09-05,"n-A",8,6,16,21,21,"L","R",0,0.873,4,21,16,21,6,9,7,9,1,6,6
"489","43R",2022-09-05,"n-A",9,6,14,21,5,"L","L",1,1.138,4,5,14,21,6,2,6,9,1,8.60232526704263,12
"490","43R",2022-09-05,"n-A",10,6,7,21,7,"L","L",1,1.617,4,7,7,21,6,4,2,9,1,5.09901951359278,6
"491","43R",2022-09-05,"n-A",11,6,6,21,14,"L","L",1,0.469,4,14,6,21,6,7,1,9,1,2,2
"492","43R",2022-09-05,"n-A",12,22,6,9,21,"R","R",1,0.905,4,9,22,21,6,5,9,9,1,8.94427190999916,12
"493","43R",2022-09-05,"n-A",13,6,19,21,21,"L","L",1,0.479,4,21,19,21,6,9,8,9,1,7,7
"494","43R",2022-09-05,"n-A",14,7,6,21,21,"R","L",0,0.637,4,21,7,21,6,9,2,9,1,1,1
"495","43R",2022-09-05,"n-A",15,10,6,5,21,"R","R",1,1.869,4,5,10,21,6,2,4,9,1,7.61577310586391,10
"496","43R",2022-09-05,"n-A",16,6,7,21,6,"L","L",1,0.709,4,6,7,21,6,3,2,9,1,6.08276253029822,7
"497","43R",2022-09-05,"n-A",17,6,12,21,11,"L","L",1,0.804,4,11,12,21,6,6,5,9,1,5,7
"498","43R",2022-09-05,"n-A",18,6,14,21,7,"L","L",1,0.497,4,7,14,21,6,4,6,9,1,7.07106781186548,10
"499","43R",2022-09-05,"n-A",19,6,7,21,4,"L","L",1,1.03,4,4,7,21,6,1,2,9,1,8.06225774829855,9
"500","43R",2022-09-05,"n-A",20,10,6,9,21,"R","L",0,0.508,4,9,10,21,6,5,4,9,1,5,7
"501","43R",2022-09-05,"n-A",21,6,14,21,17,"L","R",0,1.197,4,17,14,21,6,8,6,9,1,5.09901951359278,6
"502","43R",2022-09-05,"n-A",22,6,22,21,14,"L","L",1,0.53,4,14,22,21,6,7,9,9,1,8.24621125123532,10
"503","43R",2022-09-05,"n-A",23,6,6,21,9,"L","L",1,0.797,4,9,6,21,6,5,1,9,1,4,4
"504","43R",2022-09-05,"n-A",24,6,10,21,9,"L","L",1,0.492,4,9,10,21,6,5,4,9,1,5,7
"505","43R",2022-09-05,"n-A",25,14,6,14,21,"R","R",1,3.125,4,14,14,21,6,7,6,9,1,5.3851648071345,7
"506","43R",2022-09-05,"n-A",26,16,6,9,21,"R","R",1,1.345,4,9,16,21,6,5,7,9,1,7.21110255092798,10
"507","43R",2022-09-05,"n-A",27,6,10,21,5,"L","L",1,0.538,4,5,10,21,6,2,4,9,1,7.61577310586391,10
"508","43R",2022-09-05,"n-A",28,6,14,21,4,"L","L",1,0.902,4,4,14,21,6,1,6,9,1,9.4339811320566,13
"509","43R",2022-09-05,"n-A",29,6,6,11,21,"R","L",0,0.556,4,11,6,21,6,6,1,9,1,3,3
"510","43R",2022-09-05,"n-A",30,6,10,21,6,"L","L",1,0.881,4,6,10,21,6,3,4,9,1,6.70820393249937,9
"511","43R",2022-09-05,"n-A",31,6,6,5,21,"R","R",1,0.644,4,5,6,21,6,2,1,9,1,7,7
"512","43R",2022-09-05,"n-A",32,6,7,21,11,"L","L",1,1.073,4,11,7,21,6,6,2,9,1,3.16227766016838,4
"513","43R",2022-09-05,"n-A",33,7,6,6,21,"R","R",1,1.004,4,6,7,21,6,3,2,9,1,6.08276253029822,7
"514","43R",2022-09-05,"n-A",34,12,6,6,21,"R","R",1,0.825,4,6,12,21,6,3,5,9,1,7.21110255092798,10
"515","43R",2022-09-05,"n-A",35,7,6,4,21,"R","R",1,0.793,4,4,7,21,6,1,2,9,1,8.06225774829855,9
"516","43R",2022-09-05,"n-A",36,6,10,21,4,"L","L",1,0.541,4,4,10,21,6,1,4,9,1,8.54400374531753,11
"517","43R",2022-09-05,"n-A",37,6,16,21,17,"L","L",1,2.245,4,17,16,21,6,8,7,9,1,6.08276253029822,7
"518","43R",2022-09-05,"n-A",38,10,6,17,21,"R","L",0,0.776,4,17,10,21,6,8,4,9,1,3.16227766016838,4
"519","43R",2022-09-05,"n-A",39,6,6,21,11,"L","L",1,1.289,4,11,6,21,6,6,1,9,1,3,3
"520","43R",2022-09-05,"n-A",40,6,22,21,21,"L","L",1,2.265,4,21,22,21,6,9,9,9,1,8,8
"521","43R",2022-09-05,"n-A",41,6,6,21,5,"L","L",1,0.705,4,5,6,21,6,2,1,9,1,7,7
"522","43R",2022-09-05,"n-A",42,22,6,11,21,"R","R",1,0.905,4,11,22,21,6,6,9,9,1,8.54400374531753,11
"523","43R",2022-09-05,"n-A",43,16,6,21,21,"R","R",1,1.06,4,21,16,21,6,9,7,9,1,6,6
"524","43R",2022-09-05,"n-A",44,6,22,21,5,"L","L",1,1.069,4,5,22,21,6,2,9,9,1,10.6301458127346,15
"525","43R",2022-09-05,"n-A",45,6,16,21,6,"L","L",1,1.478,4,6,16,21,6,3,7,9,1,8.48528137423857,12
"526","43R",2022-09-05,"n-A",46,19,6,6,21,"R","R",1,1.13,4,6,19,21,6,3,8,9,1,9.21954445729289,13
"527","43R",2022-09-05,"n-A",47,6,12,21,9,"L","L",1,0.473,4,9,12,21,6,5,5,9,1,5.65685424949238,8
"528","43R",2022-09-05,"n-A",48,12,6,11,21,"R","R",1,1.265,4,11,12,21,6,6,5,9,1,5,7
"529","43R",2022-09-05,"n-A",49,6,8,21,21,"L","L",1,0.561,4,21,8,21,6,9,3,9,1,2,2
"530","43R",2022-09-05,"n-A",50,16,6,11,21,"R","R",1,1.037,4,11,16,21,6,6,7,9,1,6.70820393249937,9
"531","43R",2022-09-05,"n-A",51,8,6,21,21,"R","L",0,1.462,4,21,8,21,6,9,3,9,1,2,2
"532","43R",2022-09-05,"n-A",52,6,6,21,17,"L","R",0,1.444,4,17,6,21,6,8,1,9,1,1,1
"533","43R",2022-09-05,"n-A",53,6,22,21,17,"L","R",0,4.401,4,17,22,21,6,8,9,9,1,8.06225774829855,9
"534","43R",2022-09-05,"n-A",54,6,8,21,17,"L","L",1,1.701,4,17,8,21,6,8,3,9,1,2.23606797749979,3
"535","43R",2022-09-05,"n-A",55,14,6,4,21,"R","R",1,0.557,4,4,14,21,6,1,6,9,1,9.4339811320566,13
"536","43R",2022-09-05,"n-A",56,6,12,21,5,"L","L",1,0.817,4,5,12,21,6,2,5,9,1,8.06225774829855,11
"537","43R",2022-09-05,"n-A",57,19,6,9,21,"R","R",1,1.133,4,9,19,21,6,5,8,9,1,8.06225774829855,11
"538","43R",2022-09-05,"n-A",58,19,6,21,21,"R","R",1,1.034,4,21,19,21,6,9,8,9,1,7,7
"539","43R",2022-09-05,"n-A",59,6,12,21,14,"L","L",1,1.17,4,14,12,21,6,7,5,9,1,4.47213595499958,6
"540","43R",2022-09-05,"n-A",60,19,6,11,21,"R","R",1,1.361,4,11,19,21,6,6,8,9,1,7.61577310586391,10
"541","43R",2022-09-05,"n-A",61,14,6,6,21,"R","R",1,0.69,4,6,14,21,6,3,6,9,1,7.81024967590665,11
"542","43R",2022-09-05,"n-A",62,6,19,21,5,"L","L",1,0.808,4,5,19,21,6,2,8,9,1,9.89949493661167,14
"543","43R",2022-09-05,"n-A",63,6,8,21,4,"L","L",1,0.709,4,4,8,21,6,1,3,9,1,8.24621125123532,10
"544","43R",2022-09-05,"n-A",64,6,19,21,9,"L","L",1,0.792,4,9,19,21,6,5,8,9,1,8.06225774829855,11
"545","43R",2022-09-05,"n-A",65,6,10,21,11,"L","L",1,0.52,4,11,10,21,6,6,4,9,1,4.24264068711928,6
"546","43R",2022-09-05,"n-A",66,19,6,17,21,"R","R",1,2.637,4,17,19,21,6,8,8,9,1,7.07106781186548,8
"547","43R",2022-09-05,"n-A",67,6,22,21,6,"L","L",1,0.549,4,6,22,21,6,3,9,9,1,10,14
"548","43R",2022-09-05,"n-A",68,6,12,21,4,"L","L",1,0.589,4,4,12,21,6,1,5,9,1,8.94427190999916,12
"549","43R",2022-09-05,"n-A",69,19,6,7,21,"R","R",1,0.6,4,7,19,21,6,4,8,9,1,8.60232526704263,12
"550","43R",2022-09-05,"n-A",70,6,6,14,21,"R","L",0,2.785,4,14,6,21,6,7,1,9,1,2,2
"551","43R",2022-09-05,"n-A",71,19,6,4,21,"R","R",1,0.637,4,4,19,21,6,1,8,9,1,10.6301458127346,15
"552","43R",2022-09-05,"n-A",72,6,12,21,17,"L","L",1,3.681,4,17,12,21,6,8,5,9,1,4.12310562561766,5
"553","43R",2022-09-05,"n-A",73,12,6,17,21,"R","R",1,1.778,4,17,12,21,6,8,5,9,1,4.12310562561766,5
"554","43R",2022-09-05,"n-A",74,16,6,14,21,"R","R",1,1.012,4,14,16,21,6,7,7,9,1,6.32455532033676,8
"555","43R",2022-09-05,"n-A",75,19,6,14,21,"R","R",1,0.669,4,14,19,21,6,7,8,9,1,7.28010988928052,9
"556","43R",2022-09-05,"n-A",76,16,6,5,21,"R","R",1,0.546,4,5,16,21,6,2,7,9,1,9.21954445729289,13
"557","43R",2022-09-05,"n-A",77,6,16,21,5,"L","L",1,0.501,4,5,16,21,6,2,7,9,1,9.21954445729289,13
"558","43R",2022-09-05,"n-A",78,8,6,9,21,"R","R",1,1.141,4,9,8,21,6,5,3,9,1,4.47213595499958,6
"559","43R",2022-09-05,"n-A",79,6,7,21,21,"L","L",1,0.51,4,21,7,21,6,9,2,9,1,1,1
"560","43R",2022-09-05,"n-A",80,6,6,21,7,"L","L",1,1.325,4,7,6,21,6,4,1,9,1,5,5
"561","43R",2022-09-05,"n-A",81,7,6,5,21,"R","R",1,0.842,4,5,7,21,6,2,2,9,1,7.07106781186548,8
"562","43R",2022-09-05,"n-A",82,6,10,21,21,"L","L",1,0.37,4,21,10,21,6,9,4,9,1,3,3
"563","43R",2022-09-05,"n-A",83,6,19,21,7,"L","L",1,1.485,4,7,19,21,6,4,8,9,1,8.60232526704263,12
"564","43R",2022-09-05,"n-A",84,6,12,21,21,"L","L",1,0.781,4,21,12,21,6,9,5,9,1,4,4
"565","43R",2022-09-05,"n-A",85,22,6,17,21,"R","R",1,0.876,4,17,22,21,6,8,9,9,1,8.06225774829855,9
"566","43R",2022-09-05,"n-A",86,14,6,11,21,"R","R",1,1.145,4,11,14,21,6,6,6,9,1,5.8309518948453,8
"567","43R",2022-09-05,"n-A",87,6,7,21,17,"L","L",1,0.501,4,17,7,21,6,8,2,9,1,1.4142135623731,2
"568","43R",2022-09-05,"n-A",88,7,6,7,21,"R","R",1,1.01,4,7,7,21,6,4,2,9,1,5.09901951359278,6
"569","43R",2022-09-05,"n-A",89,6,16,21,11,"L","L",1,1.154,4,11,16,21,6,6,7,9,1,6.70820393249937,9
"570","43R",2022-09-05,"n-A",90,10,6,4,21,"R","R",1,0.812,4,4,10,21,6,1,4,9,1,8.54400374531753,11
"571","43R",2022-09-05,"n-A",91,6,16,21,4,"L","L",1,1.574,4,4,16,21,6,1,7,9,1,10,14
"572","43R",2022-09-05,"n-A",92,14,6,5,21,"R","R",1,0.817,4,5,14,21,6,2,6,9,1,8.60232526704263,12
"573","43R",2022-09-05,"n-A",93,6,19,21,14,"L","L",1,2.813,4,14,19,21,6,7,8,9,1,7.28010988928052,9
"574","43R",2022-09-05,"n-A",94,6,22,21,11,"L","L",1,0.905,4,11,22,21,6,6,9,9,1,8.54400374531753,11
"575","43R",2022-09-05,"n-A",95,6,8,21,11,"L","L",1,1.446,4,11,8,21,6,6,3,9,1,3.60555127546399,5
"576","43R",2022-09-05,"n-A",96,10,6,21,21,"R","R",1,2.473,4,21,10,21,6,9,4,9,1,3,3
"577","43R",2022-09-05,"n-A",97,16,6,6,21,"R","R",1,2.857,4,6,16,21,6,3,7,9,1,8.48528137423857,12
"578","43R",2022-09-05,"n-A",98,6,8,21,14,"L","L",1,0.653,4,14,8,21,6,7,3,9,1,2.82842712474619,4
"579","43R",2022-09-05,"n-A",99,6,7,21,9,"L","L",1,0.792,4,9,7,21,6,5,2,9,1,4.12310562561766,5
"580","43R",2022-09-05,"n-A",100,6,7,21,5,"L","L",1,3.908,4,5,7,21,6,2,2,9,1,7.07106781186548,8
"581","43R",2022-09-05,"n-A",101,6,14,21,14,"L","L",1,2.069,4,14,14,21,6,7,6,9,1,5.3851648071345,7
"582","43R",2022-09-05,"n-A",102,6,22,21,9,"L","L",1,0.712,4,9,22,21,6,5,9,9,1,8.94427190999916,12
"583","43R",2022-09-05,"n-A",103,6,6,4,21,"R","R",1,3.234,4,4,6,21,6,1,1,9,1,8,8
"584","43R",2022-09-05,"n-A",104,6,14,21,21,"L","L",1,0.586,4,21,14,21,6,9,6,9,1,5,5
"585","43R",2022-09-05,"n-A",105,10,6,6,21,"R","R",1,0.925,4,6,10,21,6,3,4,9,1,6.70820393249937,9
"586","43R",2022-09-05,"n-A",106,6,6,9,21,"R","R",1,1.506,4,9,6,21,6,5,1,9,1,4,4
"587","43R",2022-09-05,"n-A",107,6,8,21,7,"L","L",1,1.681,4,7,8,21,6,4,3,9,1,5.3851648071345,7
"588","43R",2022-09-05,"n-A",108,12,6,14,21,"R","R",1,1.145,4,14,12,21,6,7,5,9,1,4.47213595499958,6
"589","43R",2022-09-05,"n-A",109,12,6,7,21,"R","R",1,1.594,4,7,12,21,6,4,5,9,1,6.40312423743285,9
"590","43R",2022-09-05,"n-A",110,16,6,7,21,"R","R",1,0.629,4,7,16,21,6,4,7,9,1,7.81024967590665,11
"591","43R",2022-09-05,"n-A",111,12,6,5,21,"R","R",1,0.886,4,5,12,21,6,2,5,9,1,8.06225774829855,11
"592","43R",2022-09-05,"n-A",112,8,6,5,21,"R","R",1,0.513,4,5,8,21,6,2,3,9,1,7.28010988928052,9
"593","43R",2022-09-05,"n-A",113,6,22,21,4,"L","L",1,0.665,4,4,22,21,6,1,9,9,1,11.3137084989848,16
"594","43R",2022-09-05,"n-A",114,6,6,7,21,"R","R",1,2.906,4,7,6,21,6,4,1,9,1,5,5
"595","43R",2022-09-05,"n-A",115,6,22,21,7,"L","L",1,1.705,4,7,22,21,6,4,9,9,1,9.4339811320566,13
"596","43R",2022-09-05,"n-A",116,6,8,21,6,"L","L",1,1.673,4,6,8,21,6,3,3,9,1,6.32455532033676,8
"597","43R",2022-09-05,"n-A",117,6,19,21,11,"L","L",1,0.913,4,11,19,21,6,6,8,9,1,7.61577310586391,10
"598","43R",2022-09-05,"n-A",118,22,6,6,21,"R","R",1,0.537,4,6,22,21,6,3,9,9,1,10,14
"599","43R",2022-09-05,"n-A",119,7,6,14,21,"R","R",1,0.918,4,14,7,21,6,7,2,9,1,2.23606797749979,3
"600","43R",2022-09-05,"n-A",120,14,6,9,21,"R","R",1,0.875,4,9,14,21,6,5,6,9,1,6.40312423743285,9
"601","43R",2022-09-05,"n-A",121,8,6,14,21,"R","R",1,0.645,4,14,8,21,6,7,3,9,1,2.82842712474619,4
"602","43R",2022-09-05,"n-A",122,10,6,11,21,"R","R",1,1.901,4,11,10,21,6,6,4,9,1,4.24264068711928,6
"603","43R",2022-09-05,"n-A",123,6,14,21,6,"L","L",1,0.994,4,6,14,21,6,3,6,9,1,7.81024967590665,11
"604","43R",2022-09-05,"n-A",124,22,6,14,21,"R","R",1,0.889,4,14,22,21,6,7,9,9,1,8.24621125123532,10
"605","43R",2022-09-05,"n-A",125,7,6,17,21,"R","R",1,0.826,4,17,7,21,6,8,2,9,1,1.4142135623731,2
"606","43R",2022-09-05,"n-A",126,6,6,17,21,"R","R",1,2.053,4,17,6,21,6,8,1,9,1,1,1
"607","43R",2022-09-05,"n-A",127,12,6,9,21,"R","R",1,0.917,4,9,12,21,6,5,5,9,1,5.65685424949238,8
"608","43R",2022-09-05,"n-A",128,12,6,4,21,"R","R",1,0.854,4,4,12,21,6,1,5,9,1,8.94427190999916,12
"609","43R",2022-09-05,"n-A",129,22,6,21,21,"R","R",1,0.846,4,21,22,21,6,9,9,9,1,8,8
"610","43R",2022-09-05,"n-A",130,6,8,21,5,"L","L",1,0.534,4,5,8,21,6,2,3,9,1,7.28010988928052,9
"611","43R",2022-09-05,"n-A",131,6,10,21,7,"L","L",1,1.249,4,7,10,21,6,4,4,9,1,5.8309518948453,8
"612","43R",2022-09-05,"n-A",132,6,6,21,6,"L","L",1,0.778,4,6,6,21,6,3,1,9,1,6,6
"613","43R",2022-09-05,"n-A",133,6,16,21,9,"L","L",1,0.51,4,9,16,21,6,5,7,9,1,7.21110255092798,10
"614","43R",2022-09-05,"n-A",134,16,6,4,21,"R","R",1,0.48,4,4,16,21,6,1,7,9,1,10,14
"615","43R",2022-09-05,"n-A",135,8,6,4,21,"R","R",1,0.865,4,4,8,21,6,1,3,9,1,8.24621125123532,10
"616","43R",2022-09-05,"n-A",136,7,6,11,21,"R","R",1,0.862,4,11,7,21,6,6,2,9,1,3.16227766016838,4
"617","43R",2022-09-05,"n-A",137,6,7,21,14,"L","L",1,1.561,4,14,7,21,6,7,2,9,1,2.23606797749979,3
"618","43R",2022-09-05,"n-A",138,6,6,6,21,"R","R",1,0.888,4,6,6,21,6,3,1,9,1,6,6
"619","43R",2022-09-05,"n-A",139,6,16,21,7,"L","L",1,0.556,4,7,16,21,6,4,7,9,1,7.81024967590665,11
"620","43R",2022-09-05,"n-A",140,14,6,7,21,"R","R",1,1.133,4,7,14,21,6,4,6,9,1,7.07106781186548,10
"621","43R",2022-09-05,"n-A",141,6,12,21,7,"L","L",1,1.345,4,7,12,21,6,4,5,9,1,6.40312423743285,9
"622","43R",2022-09-05,"n-A",142,14,6,21,21,"R","L",0,0.682,4,21,14,21,6,9,6,9,1,5,5
"623","43R",2022-09-05,"n-A",143,6,19,21,6,"L","L",1,1.01,4,6,19,21,6,3,8,9,1,9.21954445729289,13
"624","43R",2022-09-05,"n-A",144,8,6,17,21,"R","L",0,0.561,4,17,8,21,6,8,3,9,1,2.23606797749979,3
"625","43R",2022-09-05,"n-A",145,8,6,7,21,"R","R",1,1.637,4,7,8,21,6,4,3,9,1,5.3851648071345,7
"626","43R",2022-09-05,"n-A",146,19,6,5,21,"R","R",1,0.773,4,5,19,21,6,2,8,9,1,9.89949493661167,14
"627","43R",2022-09-05,"n-A",147,22,6,4,21,"R","R",1,0.933,4,4,22,21,6,1,9,9,1,11.3137084989848,16
"628","43R",2022-09-05,"n-A",148,6,6,21,4,"L","L",1,0.905,4,4,6,21,6,1,1,9,1,8,8
"629","43R",2022-09-05,"n-A",149,6,8,21,9,"L","L",1,1.513,4,9,8,21,6,5,3,9,1,4.47213595499958,6
"630","43R",2022-09-05,"n-A",150,7,6,9,21,"R","R",1,0.501,4,9,7,21,6,5,2,9,1,4.12310562561766,5
"631","43R",2022-09-05,"n-A",151,6,10,21,17,"L","L",1,0.63,4,17,10,21,6,8,4,9,1,3.16227766016838,4
"632","43R",2022-09-05,"n-A",152,22,6,7,21,"R","R",1,0.567,4,7,22,21,6,4,9,9,1,9.4339811320566,13
"633","43R",2022-09-05,"n-A",153,14,6,17,21,"R","R",1,0.941,4,17,14,21,6,8,6,9,1,5.09901951359278,6
"634","43R",2022-09-05,"n-A",154,6,10,21,14,"L","L",1,0.565,4,14,10,21,6,7,4,9,1,3.60555127546399,5
"635","43R",2022-09-05,"n-A",155,16,6,17,21,"R","R",1,1.328,4,17,16,21,6,8,7,9,1,6.08276253029822,7
"636","43R",2022-09-05,"n-A",156,8,6,6,21,"R","R",1,0.785,4,6,8,21,6,3,3,9,1,6.32455532033676,8
"637","43R",2022-09-05,"n-A",157,6,12,21,6,"L","L",1,0.985,4,6,12,21,6,3,5,9,1,7.21110255092798,10
"638","43R",2022-09-05,"n-A",158,12,6,21,21,"R","R",1,1.15,4,21,12,21,6,9,5,9,1,4,4
"639","43R",2022-09-05,"n-A",159,10,6,7,21,"R","R",1,0.801,4,7,10,21,6,4,4,9,1,5.8309518948453,8
"640","43R",2022-09-05,"n-A",160,6,16,21,14,"L","L",1,0.585,4,14,16,21,6,7,7,9,1,6.32455532033676,8
"641","43R",2022-09-06,"n-A",1,19,6,11,21,"R","R",1,4.428,5,11,19,21,6,6,8,9,1,7.61577310586391,10
"642","43R",2022-09-06,"n-A",2,12,6,6,21,"R","L",0,1.6,5,6,12,21,6,3,5,9,1,7.21110255092798,10
"643","43R",2022-09-06,"n-A",3,7,6,9,21,"R","L",0,0.377,5,9,7,21,6,5,2,9,1,4.12310562561766,5
"644","43R",2022-09-06,"n-A",4,7,6,4,21,"R","R",1,0.821,5,4,7,21,6,1,2,9,1,8.06225774829855,9
"645","43R",2022-09-06,"n-A",5,8,6,11,21,"R","R",1,0.609,5,11,8,21,6,6,3,9,1,3.60555127546399,5
"646","43R",2022-09-06,"n-A",6,6,6,21,14,"L","L",1,0.377,5,14,6,21,6,7,1,9,1,2,2
"647","43R",2022-09-06,"n-A",7,10,6,6,21,"R","R",1,0.849,5,6,10,21,6,3,4,9,1,6.70820393249937,9
"648","43R",2022-09-06,"n-A",8,6,19,21,14,"L","L",1,0.445,5,14,19,21,6,7,8,9,1,7.28010988928052,9
"649","43R",2022-09-06,"n-A",9,6,16,21,14,"L","L",1,0.833,5,14,16,21,6,7,7,9,1,6.32455532033676,8
"650","43R",2022-09-06,"n-A",10,12,6,14,21,"R","L",0,1.493,5,14,12,21,6,7,5,9,1,4.47213595499958,6
"651","43R",2022-09-06,"n-A",11,6,22,21,5,"L","L",1,2.043,5,5,22,21,6,2,9,9,1,10.6301458127346,15
"652","43R",2022-09-06,"n-A",12,7,6,14,21,"R","L",0,1.301,5,14,7,21,6,7,2,9,1,2.23606797749979,3
"653","43R",2022-09-06,"n-A",13,6,6,7,21,"R","R",1,1.601,5,7,6,21,6,4,1,9,1,5,5
"654","43R",2022-09-06,"n-A",14,6,7,21,17,"L","R",0,0.975,5,17,7,21,6,8,2,9,1,1.4142135623731,2
"655","43R",2022-09-06,"n-A",15,12,6,21,21,"R","L",0,1.394,5,21,12,21,6,9,5,9,1,4,4
"656","43R",2022-09-06,"n-A",16,8,6,21,21,"R","R",1,1.669,5,21,8,21,6,9,3,9,1,2,2
"657","43R",2022-09-06,"n-A",17,6,12,21,6,"L","L",1,0.773,5,6,12,21,6,3,5,9,1,7.21110255092798,10
"658","43R",2022-09-06,"n-A",18,12,6,9,21,"R","R",1,2.778,5,9,12,21,6,5,5,9,1,5.65685424949238,8
"659","43R",2022-09-06,"n-A",19,22,6,17,21,"R","R",1,1.552,5,17,22,21,6,8,9,9,1,8.06225774829855,9
"660","43R",2022-09-06,"n-A",20,22,6,21,21,"R","R",1,2.492,5,21,22,21,6,9,9,9,1,8,8
"661","43R",2022-09-06,"n-A",21,6,10,21,21,"L","L",1,0.473,5,21,10,21,6,9,4,9,1,3,3
"662","43R",2022-09-06,"n-A",22,6,6,21,4,"L","L",1,0.628,5,4,6,21,6,1,1,9,1,8,8
"663","43R",2022-09-06,"n-A",23,6,10,21,4,"L","L",1,0.448,5,4,10,21,6,1,4,9,1,8.54400374531753,11
"664","43R",2022-09-06,"n-A",24,7,6,11,21,"R","L",0,1.385,5,11,7,21,6,6,2,9,1,3.16227766016838,4
"665","43R",2022-09-06,"n-A",25,6,14,21,6,"L","L",1,0.848,5,6,14,21,6,3,6,9,1,7.81024967590665,11
"666","43R",2022-09-06,"n-A",26,6,10,21,17,"L","L",1,0.604,5,17,10,21,6,8,4,9,1,3.16227766016838,4
"667","43R",2022-09-06,"n-A",27,6,14,21,7,"L","L",1,0.486,5,7,14,21,6,4,6,9,1,7.07106781186548,10
"668","43R",2022-09-06,"n-A",28,6,12,21,7,"L","L",1,0.938,5,7,12,21,6,4,5,9,1,6.40312423743285,9
"669","43R",2022-09-06,"n-A",29,6,8,21,6,"L","L",1,0.936,5,6,8,21,6,3,3,9,1,6.32455532033676,8
"670","43R",2022-09-06,"n-A",30,8,6,17,21,"R","L",0,0.764,5,17,8,21,6,8,3,9,1,2.23606797749979,3
"671","43R",2022-09-06,"n-A",31,14,6,11,21,"R","R",1,0.666,5,11,14,21,6,6,6,9,1,5.8309518948453,8
"672","43R",2022-09-06,"n-A",32,6,14,21,11,"L","L",1,2.112,5,11,14,21,6,6,6,9,1,5.8309518948453,8
"673","43R",2022-09-06,"n-A",33,6,19,21,4,"L","L",1,3.098,5,4,19,21,6,1,8,9,1,10.6301458127346,15
"674","43R",2022-09-06,"n-A",34,6,6,14,21,"R","R",1,0.85,5,14,6,21,6,7,1,9,1,2,2
"675","43R",2022-09-06,"n-A",35,16,6,14,21,"R","R",1,2.897,5,14,16,21,6,7,7,9,1,6.32455532033676,8
"676","43R",2022-09-06,"n-A",36,6,12,21,21,"L","L",1,0.701,5,21,12,21,6,9,5,9,1,4,4
"677","43R",2022-09-06,"n-A",37,6,6,21,7,"L","R",0,2.289,5,7,6,21,6,4,1,9,1,5,5
"678","43R",2022-09-06,"n-A",38,10,6,17,21,"R","L",0,0.518,5,17,10,21,6,8,4,9,1,3.16227766016838,4
"679","43R",2022-09-06,"n-A",39,8,6,4,21,"R","R",1,0.537,5,4,8,21,6,1,3,9,1,8.24621125123532,10
"680","43R",2022-09-06,"n-A",40,19,6,6,21,"R","R",1,0.469,5,6,19,21,6,3,8,9,1,9.21954445729289,13
"681","43R",2022-09-06,"n-A",41,12,6,4,21,"R","R",1,1.205,5,4,12,21,6,1,5,9,1,8.94427190999916,12
"682","43R",2022-09-06,"n-A",42,6,16,21,11,"L","L",1,0.57,5,11,16,21,6,6,7,9,1,6.70820393249937,9
"683","43R",2022-09-06,"n-A",43,6,14,21,5,"L","L",1,0.925,5,5,14,21,6,2,6,9,1,8.60232526704263,12
"684","43R",2022-09-06,"n-A",44,6,16,21,7,"L","L",1,0.798,5,7,16,21,6,4,7,9,1,7.81024967590665,11
"685","43R",2022-09-06,"n-A",45,6,19,21,9,"L","L",1,2.434,5,9,19,21,6,5,8,9,1,8.06225774829855,11
"686","43R",2022-09-06,"n-A",46,6,14,21,4,"L","L",1,0.852,5,4,14,21,6,1,6,9,1,9.4339811320566,13
"687","43R",2022-09-06,"n-A",47,7,6,7,21,"R","R",1,0.525,5,7,7,21,6,4,2,9,1,5.09901951359278,6
"688","43R",2022-09-06,"n-A",48,6,10,21,9,"L","L",1,0.809,5,9,10,21,6,5,4,9,1,5,7
"689","43R",2022-09-06,"n-A",49,6,8,21,7,"L","L",1,0.557,5,7,8,21,6,4,3,9,1,5.3851648071345,7
"690","43R",2022-09-06,"n-A",50,6,16,21,4,"L","L",1,0.448,5,4,16,21,6,1,7,9,1,10,14
"691","43R",2022-09-06,"n-A",51,6,22,21,11,"L","L",1,1.398,5,11,22,21,6,6,9,9,1,8.54400374531753,11
"692","43R",2022-09-06,"n-A",52,14,6,17,21,"R","R",1,1.521,5,17,14,21,6,8,6,9,1,5.09901951359278,6
"693","43R",2022-09-06,"n-A",53,6,22,21,9,"L","L",1,1.293,5,9,22,21,6,5,9,9,1,8.94427190999916,12
"694","43R",2022-09-06,"n-A",54,12,6,5,21,"R","R",1,0.673,5,5,12,21,6,2,5,9,1,8.06225774829855,11
"695","43R",2022-09-06,"n-A",55,22,6,9,21,"R","R",1,1.76,5,9,22,21,6,5,9,9,1,8.94427190999916,12
"696","43R",2022-09-06,"n-A",56,10,6,4,21,"R","R",1,0.514,5,4,10,21,6,1,4,9,1,8.54400374531753,11
"697","43R",2022-09-06,"n-A",57,6,14,21,14,"L","L",1,0.634,5,14,14,21,6,7,6,9,1,5.3851648071345,7
"698","43R",2022-09-06,"n-A",58,10,6,9,21,"R","R",1,1.598,5,9,10,21,6,5,4,9,1,5,7
"699","43R",2022-09-06,"n-A",59,6,22,21,17,"L","L",1,0.505,5,17,22,21,6,8,9,9,1,8.06225774829855,9
"700","43R",2022-09-06,"n-A",60,16,6,4,21,"R","R",1,0.756,5,4,16,21,6,1,7,9,1,10,14
"701","43R",2022-09-06,"n-A",61,6,14,21,9,"L","L",1,1.405,5,9,14,21,6,5,6,9,1,6.40312423743285,9
"702","43R",2022-09-06,"n-A",62,14,6,9,21,"R","R",1,0.493,5,9,14,21,6,5,6,9,1,6.40312423743285,9
"703","43R",2022-09-06,"n-A",63,10,6,14,21,"R","R",1,1.461,5,14,10,21,6,7,4,9,1,3.60555127546399,5
"704","43R",2022-09-06,"n-A",64,6,12,21,9,"L","L",1,2.053,5,9,12,21,6,5,5,9,1,5.65685424949238,8
"705","43R",2022-09-06,"n-A",65,22,6,6,21,"R","R",1,1.22,5,6,22,21,6,3,9,9,1,10,14
"706","43R",2022-09-06,"n-A",66,6,12,21,4,"L","L",1,1.442,5,4,12,21,6,1,5,9,1,8.94427190999916,12
"707","43R",2022-09-06,"n-A",67,19,6,5,21,"R","R",1,0.621,5,5,19,21,6,2,8,9,1,9.89949493661167,14
"708","43R",2022-09-06,"n-A",68,6,7,21,14,"L","L",1,1.393,5,14,7,21,6,7,2,9,1,2.23606797749979,3
"709","43R",2022-09-06,"n-A",69,6,10,21,5,"L","L",1,0.857,5,5,10,21,6,2,4,9,1,7.61577310586391,10
"710","43R",2022-09-06,"n-A",70,6,8,21,11,"L","L",1,1.202,5,11,8,21,6,6,3,9,1,3.60555127546399,5
"711","43R",2022-09-06,"n-A",71,19,6,21,21,"R","R",1,0.542,5,21,19,21,6,9,8,9,1,7,7
"712","43R",2022-09-06,"n-A",72,6,19,21,21,"L","L",1,4.677,5,21,19,21,6,9,8,9,1,7,7
"713","43R",2022-09-06,"n-A",73,6,6,11,21,"R","R",1,1.84,5,11,6,21,6,6,1,9,1,3,3
"714","43R",2022-09-06,"n-A",74,6,6,21,6,"L","L",1,0.842,5,6,6,21,6,3,1,9,1,6,6
"715","43R",2022-09-06,"n-A",75,6,6,21,5,"L","L",1,0.881,5,5,6,21,6,2,1,9,1,7,7
"716","43R",2022-09-06,"n-A",76,14,6,5,21,"R","R",1,0.526,5,5,14,21,6,2,6,9,1,8.60232526704263,12
"717","43R",2022-09-06,"n-A",77,7,6,21,21,"R","R",1,0.849,5,21,7,21,6,9,2,9,1,1,1
"718","43R",2022-09-06,"n-A",78,10,6,7,21,"R","R",1,0.945,5,7,10,21,6,4,4,9,1,5.8309518948453,8
"719","43R",2022-09-06,"n-A",79,6,16,21,17,"L","L",1,1.757,5,17,16,21,6,8,7,9,1,6.08276253029822,7
"720","43R",2022-09-06,"n-A",80,16,6,17,21,"R","R",1,0.993,5,17,16,21,6,8,7,9,1,6.08276253029822,7
"721","43R",2022-09-06,"n-A",81,6,16,21,21,"L","L",1,1.505,5,21,16,21,6,9,7,9,1,6,6
"722","43R",2022-09-06,"n-A",82,6,12,21,5,"L","L",1,0.753,5,5,12,21,6,2,5,9,1,8.06225774829855,11
"723","43R",2022-09-06,"n-A",83,6,19,21,17,"L","L",1,1.424,5,17,19,21,6,8,8,9,1,7.07106781186548,8
"724","43R",2022-09-06,"n-A",84,6,7,21,11,"L","L",1,0.925,5,11,7,21,6,6,2,9,1,3.16227766016838,4
"725","43R",2022-09-06,"n-A",85,6,8,21,17,"L","L",1,0.486,5,17,8,21,6,8,3,9,1,2.23606797749979,3
"726","43R",2022-09-06,"n-A",86,6,6,9,21,"R","R",1,1.398,5,9,6,21,6,5,1,9,1,4,4
"727","43R",2022-09-06,"n-A",87,10,6,5,21,"R","R",1,0.544,5,5,10,21,6,2,4,9,1,7.61577310586391,10
"728","43R",2022-09-06,"n-A",88,16,6,21,21,"R","R",1,1.613,5,21,16,21,6,9,7,9,1,6,6
"729","43R",2022-09-06,"n-A",89,22,6,5,21,"R","R",1,0.561,5,5,22,21,6,2,9,9,1,10.6301458127346,15
"730","43R",2022-09-06,"n-A",90,6,14,21,21,"L","L",1,0.901,5,21,14,21,6,9,6,9,1,5,5
"731","43R",2022-09-06,"n-A",91,22,6,7,21,"R","R",1,0.769,5,7,22,21,6,4,9,9,1,9.4339811320566,13
"732","43R",2022-09-06,"n-A",92,8,6,9,21,"R","R",1,0.938,5,9,8,21,6,5,3,9,1,4.47213595499958,6
"733","43R",2022-09-06,"n-A",93,6,22,21,7,"L","L",1,1.473,5,7,22,21,6,4,9,9,1,9.4339811320566,13
"734","43R",2022-09-06,"n-A",94,6,22,21,21,"L","L",1,1.413,5,21,22,21,6,9,9,9,1,8,8
"735","43R",2022-09-06,"n-A",95,16,6,6,21,"R","R",1,1.173,5,6,16,21,6,3,7,9,1,8.48528137423857,12
"736","43R",2022-09-06,"n-A",96,6,22,21,14,"L","L",1,0.462,5,14,22,21,6,7,9,9,1,8.24621125123532,10
"737","43R",2022-09-06,"n-A",97,6,6,21,17,"L","L",1,1.901,5,17,6,21,6,8,1,9,1,1,1
"738","43R",2022-09-06,"n-A",98,19,6,17,21,"R","R",1,1.666,5,17,19,21,6,8,8,9,1,7.07106781186548,8
"739","43R",2022-09-06,"n-A",99,6,8,21,9,"L","L",1,1.993,5,9,8,21,6,5,3,9,1,4.47213595499958,6
"740","43R",2022-09-06,"n-A",100,6,6,5,21,"R","R",1,0.957,5,5,6,21,6,2,1,9,1,7,7
"741","43R",2022-09-06,"n-A",101,7,6,17,21,"R","R",1,6.369,5,17,7,21,6,8,2,9,1,1.4142135623731,2
"742","43R",2022-09-06,"n-A",102,8,6,6,21,"R","R",1,0.925,5,6,8,21,6,3,3,9,1,6.32455532033676,8
"743","43R",2022-09-06,"n-A",103,10,6,21,21,"R","L",0,1.349,5,21,10,21,6,9,4,9,1,3,3
"744","43R",2022-09-06,"n-A",104,6,19,21,11,"L","L",1,0.869,5,11,19,21,6,6,8,9,1,7.61577310586391,10
"745","43R",2022-09-06,"n-A",105,6,8,21,4,"L","L",1,1.433,5,4,8,21,6,1,3,9,1,8.24621125123532,10
"746","43R",2022-09-06,"n-A",106,10,6,11,21,"R","R",1,0.544,5,11,10,21,6,6,4,9,1,4.24264068711928,6
"747","43R",2022-09-06,"n-A",107,16,6,5,21,"R","R",1,0.524,5,5,16,21,6,2,7,9,1,9.21954445729289,13
"748","43R",2022-09-06,"n-A",108,19,6,14,21,"R","R",1,0.865,5,14,19,21,6,7,8,9,1,7.28010988928052,9
"749","43R",2022-09-06,"n-A",109,6,19,21,7,"L","L",1,1.141,5,7,19,21,6,4,8,9,1,8.60232526704263,12
"750","43R",2022-09-06,"n-A",110,8,6,7,21,"R","R",1,0.816,5,7,8,21,6,4,3,9,1,5.3851648071345,7
"751","43R",2022-09-06,"n-A",111,6,7,21,21,"L","L",1,0.847,5,21,7,21,6,9,2,9,1,1,1
"752","43R",2022-09-06,"n-A",112,14,6,6,21,"R","R",1,1.221,5,6,14,21,6,3,6,9,1,7.81024967590665,11
"753","43R",2022-09-06,"n-A",113,6,8,21,14,"L","L",1,0.829,5,14,8,21,6,7,3,9,1,2.82842712474619,4
"754","43R",2022-09-06,"n-A",114,6,10,21,6,"L","L",1,1.117,5,6,10,21,6,3,4,9,1,6.70820393249937,9
"755","43R",2022-09-06,"n-A",115,6,7,21,4,"L","L",1,2.161,5,4,7,21,6,1,2,9,1,8.06225774829855,9
"756","43R",2022-09-06,"n-A",116,6,14,21,17,"L","L",1,1.493,5,17,14,21,6,8,6,9,1,5.09901951359278,6
"757","43R",2022-09-06,"n-A",117,6,7,21,5,"L","L",1,0.882,5,5,7,21,6,2,2,9,1,7.07106781186548,8
"758","43R",2022-09-06,"n-A",118,6,6,21,11,"L","L",1,1.485,5,11,6,21,6,6,1,9,1,3,3
"759","43R",2022-09-06,"n-A",119,6,10,21,7,"L","L",1,0.798,5,7,10,21,6,4,4,9,1,5.8309518948453,8
"760","43R",2022-09-06,"n-A",120,16,6,11,21,"R","R",1,1.041,5,11,16,21,6,6,7,9,1,6.70820393249937,9
"761","43R",2022-09-06,"n-A",121,14,6,14,21,"R","R",1,1.038,5,14,14,21,6,7,6,9,1,5.3851648071345,7
"762","43R",2022-09-06,"n-A",122,6,8,21,5,"L","L",1,0.859,5,5,8,21,6,2,3,9,1,7.28010988928052,9
"763","43R",2022-09-06,"n-A",123,22,6,4,21,"R","R",1,0.761,5,4,22,21,6,1,9,9,1,11.3137084989848,16
"764","43R",2022-09-06,"n-A",124,6,12,21,17,"L","L",1,0.835,5,17,12,21,6,8,5,9,1,4.12310562561766,5
"765","43R",2022-09-06,"n-A",125,6,7,21,7,"L","L",1,0.592,5,7,7,21,6,4,2,9,1,5.09901951359278,6
"766","43R",2022-09-06,"n-A",126,6,16,21,5,"L","L",1,0.729,5,5,16,21,6,2,7,9,1,9.21954445729289,13
"767","43R",2022-09-06,"n-A",127,12,6,17,21,"R","R",1,1.705,5,17,12,21,6,8,5,9,1,4.12310562561766,5
"768","43R",2022-09-06,"n-A",128,12,6,11,21,"R","R",1,0.887,5,11,12,21,6,6,5,9,1,5,7
"769","43R",2022-09-06,"n-A",129,22,6,11,21,"R","R",1,0.937,5,11,22,21,6,6,9,9,1,8.54400374531753,11
"770","43R",2022-09-06,"n-A",130,6,19,21,5,"L","L",1,0.69,5,5,19,21,6,2,8,9,1,9.89949493661167,14
"771","43R",2022-09-06,"n-A",131,7,6,5,21,"R","R",1,1.268,5,5,7,21,6,2,2,9,1,7.07106781186548,8
"772","43R",2022-09-06,"n-A",132,16,6,7,21,"R","R",1,0.866,5,7,16,21,6,4,7,9,1,7.81024967590665,11
"773","43R",2022-09-06,"n-A",133,6,10,21,14,"L","L",1,1.341,5,14,10,21,6,7,4,9,1,3.60555127546399,5
"774","43R",2022-09-06,"n-A",134,22,6,14,21,"R","R",1,1.509,5,14,22,21,6,7,9,9,1,8.24621125123532,10
"775","43R",2022-09-06,"n-A",135,16,6,9,21,"R","R",1,1.46,5,9,16,21,6,5,7,9,1,7.21110255092798,10
"776","43R",2022-09-06,"n-A",136,14,6,21,21,"R","L",0,0.979,5,21,14,21,6,9,6,9,1,5,5
"777","43R",2022-09-06,"n-A",137,6,6,6,21,"R","R",1,1.789,5,6,6,21,6,3,1,9,1,6,6
"778","43R",2022-09-06,"n-A",138,6,8,21,21,"L","L",1,0.761,5,21,8,21,6,9,3,9,1,2,2
"779","43R",2022-09-06,"n-A",139,19,6,4,21,"R","R",1,1.218,5,4,19,21,6,1,8,9,1,10.6301458127346,15
"780","43R",2022-09-06,"n-A",140,6,16,21,6,"L","L",1,2.076,5,6,16,21,6,3,7,9,1,8.48528137423857,12
"781","43R",2022-09-06,"n-A",141,6,6,17,21,"R","L",0,1.445,5,17,6,21,6,8,1,9,1,1,1
"782","43R",2022-09-06,"n-A",142,6,16,21,9,"L","L",1,0.986,5,9,16,21,6,5,7,9,1,7.21110255092798,10
"783","43R",2022-09-06,"n-A",143,6,12,21,11,"L","L",1,1.097,5,11,12,21,6,6,5,9,1,5,7
"784","43R",2022-09-06,"n-A",144,19,6,7,21,"R","R",1,0.478,5,7,19,21,6,4,8,9,1,8.60232526704263,12
"785","43R",2022-09-06,"n-A",145,6,7,21,6,"L","L",1,8.385,5,6,7,21,6,3,2,9,1,6.08276253029822,7
"786","43R",2022-09-06,"n-A",146,6,22,21,4,"L","L",1,0.484,5,4,22,21,6,1,9,9,1,11.3137084989848,16
"787","43R",2022-09-06,"n-A",147,8,6,5,21,"R","R",1,0.52,5,5,8,21,6,2,3,9,1,7.28010988928052,9
"788","43R",2022-09-06,"n-A",148,6,22,21,6,"L","L",1,0.509,5,6,22,21,6,3,9,9,1,10,14
"789","43R",2022-09-06,"n-A",149,14,6,4,21,"R","R",1,0.47,5,4,14,21,6,1,6,9,1,9.4339811320566,13
"790","43R",2022-09-06,"n-A",150,6,19,21,6,"L","L",1,0.966,5,6,19,21,6,3,8,9,1,9.21954445729289,13
"791","43R",2022-09-06,"n-A",151,6,10,21,11,"L","L",1,0.584,5,11,10,21,6,6,4,9,1,4.24264068711928,6
"792","43R",2022-09-06,"n-A",152,7,6,6,21,"R","R",1,0.517,5,6,7,21,6,3,2,9,1,6.08276253029822,7
"793","43R",2022-09-06,"n-A",153,6,12,21,14,"L","L",1,2.35,5,14,12,21,6,7,5,9,1,4.47213595499958,6
"794","43R",2022-09-06,"n-A",154,8,6,14,21,"R","L",0,0.546,5,14,8,21,6,7,3,9,1,2.82842712474619,4
"795","43R",2022-09-06,"n-A",155,14,6,7,21,"R","R",1,1.369,5,7,14,21,6,4,6,9,1,7.07106781186548,10
"796","43R",2022-09-06,"n-A",156,19,6,9,21,"R","R",1,1.887,5,9,19,21,6,5,8,9,1,8.06225774829855,11
"797","43R",2022-09-06,"n-A",157,6,7,21,9,"L","L",1,0.677,5,9,7,21,6,5,2,9,1,4.12310562561766,5
"798","43R",2022-09-06,"n-A",158,6,6,21,9,"L","L",1,4.766,5,9,6,21,6,5,1,9,1,4,4
"799","43R",2022-09-06,"n-A",159,12,6,7,21,"R","R",1,0.557,5,7,12,21,6,4,5,9,1,6.40312423743285,9
"800","43R",2022-09-06,"n-A",160,6,6,4,21,"R","R",1,0.812,5,4,6,21,6,1,1,9,1,8,8
"801","43R",2022-09-07,"n-A",1,6,10,21,6,"L","L",1,4.288,6,6,10,21,6,3,4,9,1,6.70820393249937,9
"802","43R",2022-09-07,"n-A",2,6,8,21,14,"L","L",1,0.292,6,14,8,21,6,7,3,9,1,2.82842712474619,4
"803","43R",2022-09-07,"n-A",3,14,6,17,21,"R","L",0,0.37,6,17,14,21,6,8,6,9,1,5.09901951359278,6
"804","43R",2022-09-07,"n-A",4,6,8,21,11,"L","L",1,1.065,6,11,8,21,6,6,3,9,1,3.60555127546399,5
"805","43R",2022-09-07,"n-A",5,6,6,21,4,"L","L",1,1.914,6,4,6,21,6,1,1,9,1,8,8
"806","43R",2022-09-07,"n-A",6,16,6,11,21,"R","R",1,0.661,6,11,16,21,6,6,7,9,1,6.70820393249937,9
"807","43R",2022-09-07,"n-A",7,6,12,21,21,"L","L",1,0.742,6,21,12,21,6,9,5,9,1,4,4
"808","43R",2022-09-07,"n-A",8,14,6,7,21,"R","L",0,0.269,6,7,14,21,6,4,6,9,1,7.07106781186548,10
"809","43R",2022-09-07,"n-A",9,6,10,21,21,"L","L",1,1.178,6,21,10,21,6,9,4,9,1,3,3
"810","43R",2022-09-07,"n-A",10,6,10,21,9,"L","L",1,1.133,6,9,10,21,6,5,4,9,1,5,7
"811","43R",2022-09-07,"n-A",11,10,6,11,21,"R","R",1,1.05,6,11,10,21,6,6,4,9,1,4.24264068711928,6
"812","43R",2022-09-07,"n-A",12,8,6,17,21,"R","L",0,1.407,6,17,8,21,6,8,3,9,1,2.23606797749979,3
"813","43R",2022-09-07,"n-A",13,6,19,21,9,"L","L",1,1.081,6,9,19,21,6,5,8,9,1,8.06225774829855,11
"814","43R",2022-09-07,"n-A",14,6,8,21,21,"L","L",1,3.357,6,21,8,21,6,9,3,9,1,2,2
"815","43R",2022-09-07,"n-A",15,6,10,21,7,"L","L",1,1.249,6,7,10,21,6,4,4,9,1,5.8309518948453,8
"816","43R",2022-09-07,"n-A",16,22,6,5,21,"R","R",1,0.614,6,5,22,21,6,2,9,9,1,10.6301458127346,15
"817","43R",2022-09-07,"n-A",17,10,6,14,21,"R","R",1,0.573,6,14,10,21,6,7,4,9,1,3.60555127546399,5
"818","43R",2022-09-07,"n-A",18,6,6,21,7,"L","L",1,1.787,6,7,6,21,6,4,1,9,1,5,5
"819","43R",2022-09-07,"n-A",19,6,19,21,14,"L","L",1,0.758,6,14,19,21,6,7,8,9,1,7.28010988928052,9
"820","43R",2022-09-07,"n-A",20,6,8,21,7,"L","L",1,0.73,6,7,8,21,6,4,3,9,1,5.3851648071345,7
"821","43R",2022-09-07,"n-A",21,8,6,11,21,"R","R",1,0.534,6,11,8,21,6,6,3,9,1,3.60555127546399,5
"822","43R",2022-09-07,"n-A",22,6,22,21,17,"L","L",1,1.781,6,17,22,21,6,8,9,9,1,8.06225774829855,9
"823","43R",2022-09-07,"n-A",23,10,6,7,21,"R","R",1,1.577,6,7,10,21,6,4,4,9,1,5.8309518948453,8
"824","43R",2022-09-07,"n-A",24,22,6,9,21,"R","R",1,1.157,6,9,22,21,6,5,9,9,1,8.94427190999916,12
"825","43R",2022-09-07,"n-A",25,10,6,21,21,"R","R",1,1.784,6,21,10,21,6,9,4,9,1,3,3
"826","43R",2022-09-07,"n-A",26,12,6,11,21,"R","R",1,1.23,6,11,12,21,6,6,5,9,1,5,7
"827","43R",2022-09-07,"n-A",27,6,14,21,17,"L","L",1,0.657,6,17,14,21,6,8,6,9,1,5.09901951359278,6
"828","43R",2022-09-07,"n-A",28,6,19,21,7,"L","L",1,2.39,6,7,19,21,6,4,8,9,1,8.60232526704263,12
"829","43R",2022-09-07,"n-A",29,6,6,5,21,"R","R",1,0.981,6,5,6,21,6,2,1,9,1,7,7
"830","43R",2022-09-07,"n-A",30,16,6,21,21,"R","R",1,1.088,6,21,16,21,6,9,7,9,1,6,6
"831","43R",2022-09-07,"n-A",31,6,19,21,4,"L","L",1,1.545,6,4,19,21,6,1,8,9,1,10.6301458127346,15
"832","43R",2022-09-07,"n-A",32,6,16,21,9,"L","L",1,1.573,6,9,16,21,6,5,7,9,1,7.21110255092798,10
"833","43R",2022-09-07,"n-A",33,6,6,6,21,"R","R",1,2.033,6,6,6,21,6,3,1,9,1,6,6
"834","43R",2022-09-07,"n-A",34,19,6,11,21,"R","R",1,1.301,6,11,19,21,6,6,8,9,1,7.61577310586391,10
"835","43R",2022-09-07,"n-A",35,6,6,11,21,"R","R",1,0.573,6,11,6,21,6,6,1,9,1,3,3
"836","43R",2022-09-07,"n-A",36,10,6,9,21,"R","R",1,2.242,6,9,10,21,6,5,4,9,1,5,7
"837","43R",2022-09-07,"n-A",37,8,6,21,21,"R","L",0,1.001,6,21,8,21,6,9,3,9,1,2,2
"838","43R",2022-09-07,"n-A",38,7,6,5,21,"R","R",1,1.041,6,5,7,21,6,2,2,9,1,7.07106781186548,8
"839","43R",2022-09-07,"n-A",39,6,7,21,5,"L","L",1,0.642,6,5,7,21,6,2,2,9,1,7.07106781186548,8
"840","43R",2022-09-07,"n-A",40,7,6,14,21,"R","L",0,0.885,6,14,7,21,6,7,2,9,1,2.23606797749979,3
"841","43R",2022-09-07,"n-A",41,6,22,21,7,"L","L",1,0.592,6,7,22,21,6,4,9,9,1,9.4339811320566,13
"842","43R",2022-09-07,"n-A",42,19,6,9,21,"R","R",1,1.009,6,9,19,21,6,5,8,9,1,8.06225774829855,11
"843","43R",2022-09-07,"n-A",43,6,10,21,11,"L","L",1,0.614,6,11,10,21,6,6,4,9,1,4.24264068711928,6
"844","43R",2022-09-07,"n-A",44,6,6,14,21,"R","R",1,1.269,6,14,6,21,6,7,1,9,1,2,2
"845","43R",2022-09-07,"n-A",45,16,6,6,21,"R","R",1,1.825,6,6,16,21,6,3,7,9,1,8.48528137423857,12
"846","43R",2022-09-07,"n-A",46,6,7,21,17,"L","L",1,0.908,6,17,7,21,6,8,2,9,1,1.4142135623731,2
"847","43R",2022-09-07,"n-A",47,6,16,21,4,"L","L",1,1.214,6,4,16,21,6,1,7,9,1,10,14
"848","43R",2022-09-07,"n-A",48,12,6,4,21,"R","R",1,1.136,6,4,12,21,6,1,5,9,1,8.94427190999916,12
"849","43R",2022-09-07,"n-A",49,6,14,21,6,"L","L",1,0.949,6,6,14,21,6,3,6,9,1,7.81024967590665,11
"850","43R",2022-09-07,"n-A",50,6,12,21,7,"L","L",1,0.534,6,7,12,21,6,4,5,9,1,6.40312423743285,9
"851","43R",2022-09-07,"n-A",51,8,6,9,21,"R","R",1,0.565,6,9,8,21,6,5,3,9,1,4.47213595499958,6
"852","43R",2022-09-07,"n-A",52,6,6,17,21,"R","L",0,1.921,6,17,6,21,6,8,1,9,1,1,1
"853","43R",2022-09-07,"n-A",53,6,12,21,11,"L","L",1,5.173,6,11,12,21,6,6,5,9,1,5,7
"854","43R",2022-09-07,"n-A",54,12,6,9,21,"R","R",1,0.542,6,9,12,21,6,5,5,9,1,5.65685424949238,8
"855","43R",2022-09-07,"n-A",55,6,22,21,9,"L","L",1,0.962,6,9,22,21,6,5,9,9,1,8.94427190999916,12
"856","43R",2022-09-07,"n-A",56,22,6,7,21,"R","R",1,0.884,6,7,22,21,6,4,9,9,1,9.4339811320566,13
"857","43R",2022-09-07,"n-A",57,8,6,5,21,"R","R",1,0.517,6,5,8,21,6,2,3,9,1,7.28010988928052,9
"858","43R",2022-09-07,"n-A",58,6,14,21,5,"L","L",1,3.911,6,5,14,21,6,2,6,9,1,8.60232526704263,12
"859","43R",2022-09-07,"n-A",59,6,7,21,9,"L","L",1,0.625,6,9,7,21,6,5,2,9,1,4.12310562561766,5
"860","43R",2022-09-07,"n-A",60,22,6,11,21,"R","R",1,0.694,6,11,22,21,6,6,9,9,1,8.54400374531753,11
"861","43R",2022-09-07,"n-A",61,22,6,17,21,"R","R",1,0.673,6,17,22,21,6,8,9,9,1,8.06225774829855,9
"862","43R",2022-09-07,"n-A",62,7,6,11,21,"R","L",0,1.684,6,11,7,21,6,6,2,9,1,3.16227766016838,4
"863","43R",2022-09-07,"n-A",63,8,6,6,21,"R","R",1,1.658,6,6,8,21,6,3,3,9,1,6.32455532033676,8
"864","43R",2022-09-07,"n-A",64,6,16,21,21,"L","L",1,0.661,6,21,16,21,6,9,7,9,1,6,6
"865","43R",2022-09-07,"n-A",65,6,8,21,6,"L","L",1,1.749,6,6,8,21,6,3,3,9,1,6.32455532033676,8
"866","43R",2022-09-07,"n-A",66,16,6,5,21,"R","R",1,0.918,6,5,16,21,6,2,7,9,1,9.21954445729289,13
"867","43R",2022-09-07,"n-A",67,14,6,5,21,"R","R",1,0.524,6,5,14,21,6,2,6,9,1,8.60232526704263,12
"868","43R",2022-09-07,"n-A",68,19,6,14,21,"R","L",0,0.561,6,14,19,21,6,7,8,9,1,7.28010988928052,9
"869","43R",2022-09-07,"n-A",69,6,14,21,21,"L","L",1,0.717,6,21,14,21,6,9,6,9,1,5,5
"870","43R",2022-09-07,"n-A",70,22,6,14,21,"R","R",1,1.123,6,14,22,21,6,7,9,9,1,8.24621125123532,10
"871","43R",2022-09-07,"n-A",71,6,12,21,5,"L","L",1,0.832,6,5,12,21,6,2,5,9,1,8.06225774829855,11
"872","43R",2022-09-07,"n-A",72,16,6,17,21,"R","R",1,0.737,6,17,16,21,6,8,7,9,1,6.08276253029822,7
"873","43R",2022-09-07,"n-A",73,19,6,17,21,"R","L",0,0.485,6,17,19,21,6,8,8,9,1,7.07106781186548,8
"874","43R",2022-09-07,"n-A",74,6,6,21,14,"L","L",1,1.158,6,14,6,21,6,7,1,9,1,2,2
"875","43R",2022-09-07,"n-A",75,16,6,4,21,"R","R",1,1.026,6,4,16,21,6,1,7,9,1,10,14
"876","43R",2022-09-07,"n-A",76,10,6,6,21,"R","R",1,1.301,6,6,10,21,6,3,4,9,1,6.70820393249937,9
"877","43R",2022-09-07,"n-A",77,12,6,7,21,"R","R",1,0.927,6,7,12,21,6,4,5,9,1,6.40312423743285,9
"878","43R",2022-09-07,"n-A",78,6,7,21,11,"L","L",1,0.523,6,11,7,21,6,6,2,9,1,3.16227766016838,4
"879","43R",2022-09-07,"n-A",79,6,14,21,14,"L","L",1,0.809,6,14,14,21,6,7,6,9,1,5.3851648071345,7
"880","43R",2022-09-07,"n-A",80,6,7,21,4,"L","L",1,0.906,6,4,7,21,6,1,2,9,1,8.06225774829855,9
"881","43R",2022-09-07,"n-A",81,8,6,14,21,"R","L",0,0.5,6,14,8,21,6,7,3,9,1,2.82842712474619,4
"882","43R",2022-09-07,"n-A",82,12,6,14,21,"R","R",1,2.001,6,14,12,21,6,7,5,9,1,4.47213595499958,6
"883","43R",2022-09-07,"n-A",83,6,22,21,14,"L","L",1,0.541,6,14,22,21,6,7,9,9,1,8.24621125123532,10
"884","43R",2022-09-07,"n-A",84,14,6,6,21,"R","R",1,0.626,6,6,14,21,6,3,6,9,1,7.81024967590665,11
"885","43R",2022-09-07,"n-A",85,6,7,21,7,"L","L",1,4.063,6,7,7,21,6,4,2,9,1,5.09901951359278,6
"886","43R",2022-09-07,"n-A",86,6,8,21,4,"L","L",1,1.278,6,4,8,21,6,1,3,9,1,8.24621125123532,10
"887","43R",2022-09-07,"n-A",87,6,12,21,14,"L","L",1,1.001,6,14,12,21,6,7,5,9,1,4.47213595499958,6
"888","43R",2022-09-07,"n-A",88,6,19,21,5,"L","L",1,1.403,6,5,19,21,6,2,8,9,1,9.89949493661167,14
"889","43R",2022-09-07,"n-A",89,6,22,21,4,"L","L",1,0.837,6,4,22,21,6,1,9,9,1,11.3137084989848,16
"890","43R",2022-09-07,"n-A",90,6,6,4,21,"R","R",1,1.076,6,4,6,21,6,1,1,9,1,8,8
"891","43R",2022-09-07,"n-A",91,12,6,5,21,"R","R",1,0.974,6,5,12,21,6,2,5,9,1,8.06225774829855,11
"892","43R",2022-09-07,"n-A",92,6,16,21,7,"L","L",1,0.517,6,7,16,21,6,4,7,9,1,7.81024967590665,11
"893","43R",2022-09-07,"n-A",93,14,6,11,21,"R","R",1,0.998,6,11,14,21,6,6,6,9,1,5.8309518948453,8
"894","43R",2022-09-07,"n-A",94,6,6,21,17,"L","L",1,0.837,6,17,6,21,6,8,1,9,1,1,1
"895","43R",2022-09-07,"n-A",95,6,6,21,6,"L","L",1,0.765,6,6,6,21,6,3,1,9,1,6,6
"896","43R",2022-09-07,"n-A",96,6,14,21,11,"L","L",1,0.789,6,11,14,21,6,6,6,9,1,5.8309518948453,8
"897","43R",2022-09-07,"n-A",97,16,6,7,21,"R","R",1,2.697,6,7,16,21,6,4,7,9,1,7.81024967590665,11
"898","43R",2022-09-07,"n-A",98,6,10,21,4,"L","L",1,0.728,6,4,10,21,6,1,4,9,1,8.54400374531753,11
"899","43R",2022-09-07,"n-A",99,6,8,21,5,"L","L",1,0.589,6,5,8,21,6,2,3,9,1,7.28010988928052,9
"900","43R",2022-09-07,"n-A",100,6,6,21,11,"L","L",1,0.476,6,11,6,21,6,6,1,9,1,3,3
"901","43R",2022-09-07,"n-A",101,8,6,4,21,"R","R",1,0.955,6,4,8,21,6,1,3,9,1,8.24621125123532,10
"902","43R",2022-09-07,"n-A",102,6,16,21,11,"L","L",1,1.617,6,11,16,21,6,6,7,9,1,6.70820393249937,9
"903","43R",2022-09-07,"n-A",103,6,12,21,9,"L","L",1,0.509,6,9,12,21,6,5,5,9,1,5.65685424949238,8
"904","43R",2022-09-07,"n-A",104,19,6,5,21,"R","R",1,0.5,6,5,19,21,6,2,8,9,1,9.89949493661167,14
"905","43R",2022-09-07,"n-A",105,6,14,21,9,"L","L",1,0.456,6,9,14,21,6,5,6,9,1,6.40312423743285,9
"906","43R",2022-09-07,"n-A",106,6,12,21,4,"L","L",1,0.466,6,4,12,21,6,1,5,9,1,8.94427190999916,12
"907","43R",2022-09-07,"n-A",107,12,6,6,21,"R","R",1,0.761,6,6,12,21,6,3,5,9,1,7.21110255092798,10
"908","43R",2022-09-07,"n-A",108,6,12,21,17,"L","L",1,0.876,6,17,12,21,6,8,5,9,1,4.12310562561766,5
"909","43R",2022-09-07,"n-A",109,6,6,21,9,"L","L",1,1.202,6,9,6,21,6,5,1,9,1,4,4
"910","43R",2022-09-07,"n-A",110,6,16,21,5,"L","L",1,0.486,6,5,16,21,6,2,7,9,1,9.21954445729289,13
"911","43R",2022-09-07,"n-A",111,10,6,4,21,"R","R",1,0.54,6,4,10,21,6,1,4,9,1,8.54400374531753,11
"912","43R",2022-09-07,"n-A",112,12,6,17,21,"R","L",0,0.458,6,17,12,21,6,8,5,9,1,4.12310562561766,5
"913","43R",2022-09-07,"n-A",113,6,16,21,6,"L","L",1,0.73,6,6,16,21,6,3,7,9,1,8.48528137423857,12
"914","43R",2022-09-07,"n-A",114,22,6,6,21,"R","R",1,0.633,6,6,22,21,6,3,9,9,1,10,14
"915","43R",2022-09-07,"n-A",115,6,22,21,21,"L","L",1,1.678,6,21,22,21,6,9,9,9,1,8,8
"916","43R",2022-09-07,"n-A",116,14,6,9,21,"R","R",1,1.15,6,9,14,21,6,5,6,9,1,6.40312423743285,9
"917","43R",2022-09-07,"n-A",117,8,6,7,21,"R","R",1,1.53,6,7,8,21,6,4,3,9,1,5.3851648071345,7
"918","43R",2022-09-07,"n-A",118,6,10,21,14,"L","L",1,0.657,6,14,10,21,6,7,4,9,1,3.60555127546399,5
"919","43R",2022-09-07,"n-A",119,6,22,21,5,"L","L",1,0.692,6,5,22,21,6,2,9,9,1,10.6301458127346,15
"920","43R",2022-09-07,"n-A",120,6,19,21,11,"L","L",1,0.704,6,11,19,21,6,6,8,9,1,7.61577310586391,10
"921","43R",2022-09-07,"n-A",121,6,7,21,14,"L","L",1,0.866,6,14,7,21,6,7,2,9,1,2.23606797749979,3
"922","43R",2022-09-07,"n-A",122,6,19,21,6,"L","L",1,0.473,6,6,19,21,6,3,8,9,1,9.21954445729289,13
"923","43R",2022-09-07,"n-A",123,6,7,21,21,"L","L",1,0.478,6,21,7,21,6,9,2,9,1,1,1
"924","43R",2022-09-07,"n-A",124,19,6,7,21,"R","R",1,0.509,6,7,19,21,6,4,8,9,1,8.60232526704263,12
"925","43R",2022-09-07,"n-A",125,6,16,21,14,"L","L",1,0.445,6,14,16,21,6,7,7,9,1,6.32455532033676,8
"926","43R",2022-09-07,"n-A",126,19,6,6,21,"R","R",1,0.57,6,6,19,21,6,3,8,9,1,9.21954445729289,13
"927","43R",2022-09-07,"n-A",127,6,6,9,21,"R","L",0,1.582,6,9,6,21,6,5,1,9,1,4,4
"928","43R",2022-09-07,"n-A",128,6,22,21,6,"L","L",1,0.537,6,6,22,21,6,3,9,9,1,10,14
"929","43R",2022-09-07,"n-A",129,6,6,7,21,"R","R",1,0.613,6,7,6,21,6,4,1,9,1,5,5
"930","43R",2022-09-07,"n-A",130,6,14,21,7,"L","L",1,0.858,6,7,14,21,6,4,6,9,1,7.07106781186548,10
"931","43R",2022-09-07,"n-A",131,6,19,21,17,"L","L",1,1.234,6,17,19,21,6,8,8,9,1,7.07106781186548,8
"932","43R",2022-09-07,"n-A",132,7,6,17,21,"R","R",1,1.294,6,17,7,21,6,8,2,9,1,1.4142135623731,2
"933","43R",2022-09-07,"n-A",133,6,19,21,21,"L","L",1,0.661,6,21,19,21,6,9,8,9,1,7,7
"934","43R",2022-09-07,"n-A",134,7,6,9,21,"R","R",1,0.634,6,9,7,21,6,5,2,9,1,4.12310562561766,5
"935","43R",2022-09-07,"n-A",135,6,14,21,4,"L","L",1,0.818,6,4,14,21,6,1,6,9,1,9.4339811320566,13
"936","43R",2022-09-07,"n-A",136,16,6,14,21,"R","R",1,0.785,6,14,16,21,6,7,7,9,1,6.32455532033676,8
"937","43R",2022-09-07,"n-A",137,14,6,21,21,"R","L",0,0.552,6,21,14,21,6,9,6,9,1,5,5
"938","43R",2022-09-07,"n-A",138,7,6,21,21,"R","L",0,3.75,6,21,7,21,6,9,2,9,1,1,1
"939","43R",2022-09-07,"n-A",139,7,6,6,21,"R","R",1,0.579,6,6,7,21,6,3,2,9,1,6.08276253029822,7
"940","43R",2022-09-07,"n-A",140,6,12,21,6,"L","L",1,4.577,6,6,12,21,6,3,5,9,1,7.21110255092798,10
"941","43R",2022-09-07,"n-A",141,6,8,21,17,"L","L",1,0.492,6,17,8,21,6,8,3,9,1,2.23606797749979,3
"942","43R",2022-09-07,"n-A",142,6,6,21,5,"L","L",1,0.656,6,5,6,21,6,2,1,9,1,7,7
"943","43R",2022-09-07,"n-A",143,6,22,21,11,"L","L",1,1.085,6,11,22,21,6,6,9,9,1,8.54400374531753,11
"944","43R",2022-09-07,"n-A",144,22,6,4,21,"R","R",1,0.631,6,4,22,21,6,1,9,9,1,11.3137084989848,16
"945","43R",2022-09-07,"n-A",145,6,8,21,9,"L","L",1,1.377,6,9,8,21,6,5,3,9,1,4.47213595499958,6
"946","43R",2022-09-07,"n-A",146,19,6,21,21,"R","R",1,0.748,6,21,19,21,6,9,8,9,1,7,7
"947","43R",2022-09-07,"n-A",147,14,6,4,21,"R","R",1,0.697,6,4,14,21,6,1,6,9,1,9.4339811320566,13
"948","43R",2022-09-07,"n-A",148,6,7,21,6,"L","L",1,0.598,6,6,7,21,6,3,2,9,1,6.08276253029822,7
"949","43R",2022-09-07,"n-A",149,22,6,21,21,"R","R",1,0.626,6,21,22,21,6,9,9,9,1,8,8
"950","43R",2022-09-07,"n-A",150,6,16,21,17,"L","L",1,1.805,6,17,16,21,6,8,7,9,1,6.08276253029822,7
"951","43R",2022-09-07,"n-A",151,6,10,21,5,"L","L",1,0.509,6,5,10,21,6,2,4,9,1,7.61577310586391,10
"952","43R",2022-09-07,"n-A",152,10,6,17,21,"R","R",1,1.437,6,17,10,21,6,8,4,9,1,3.16227766016838,4
"953","43R",2022-09-07,"n-A",153,14,6,14,21,"R","R",1,0.762,6,14,14,21,6,7,6,9,1,5.3851648071345,7
"954","43R",2022-09-07,"n-A",154,12,6,21,21,"R","R",1,1.11,6,21,12,21,6,9,5,9,1,4,4
"955","43R",2022-09-07,"n-A",155,16,6,9,21,"R","R",1,0.568,6,9,16,21,6,5,7,9,1,7.21110255092798,10
"956","43R",2022-09-07,"n-A",156,19,6,4,21,"R","R",1,0.813,6,4,19,21,6,1,8,9,1,10.6301458127346,15
"957","43R",2022-09-07,"n-A",157,6,10,21,17,"L","L",1,0.797,6,17,10,21,6,8,4,9,1,3.16227766016838,4
"958","43R",2022-09-07,"n-A",158,10,6,5,21,"R","R",1,0.61,6,5,10,21,6,2,4,9,1,7.61577310586391,10
"959","43R",2022-09-07,"n-A",159,7,6,7,21,"R","R",1,0.849,6,7,7,21,6,4,2,9,1,5.09901951359278,6
"960","43R",2022-09-07,"n-A",160,7,6,4,21,"R","R",1,0.633,6,4,7,21,6,1,2,9,1,8.06225774829855,9
"961","43R",2022-09-08,"n-A",1,6,7,21,5,"L","L",1,2.317,7,5,7,21,6,2,2,9,1,7.07106781186548,8
"962","43R",2022-09-08,"n-A",2,6,22,21,5,"L","L",1,1.333,7,5,22,21,6,2,9,9,1,10.6301458127346,15
"963","43R",2022-09-08,"n-A",3,8,6,6,21,"R","L",0,0.41,7,6,8,21,6,3,3,9,1,6.32455532033676,8
"964","43R",2022-09-08,"n-A",4,6,10,21,21,"L","L",1,3.727,7,21,10,21,6,9,4,9,1,3,3
"965","43R",2022-09-08,"n-A",5,6,8,21,6,"L","L",1,1.082,7,6,8,21,6,3,3,9,1,6.32455532033676,8
"966","43R",2022-09-08,"n-A",6,14,6,7,21,"R","R",1,0.653,7,7,14,21,6,4,6,9,1,7.07106781186548,10
"967","43R",2022-09-08,"n-A",7,19,6,21,21,"R","L",0,1.668,7,21,19,21,6,9,8,9,1,7,7
"968","43R",2022-09-08,"n-A",8,6,8,21,5,"L","L",1,4.045,7,5,8,21,6,2,3,9,1,7.28010988928052,9
"969","43R",2022-09-08,"n-A",9,8,6,7,21,"R","L",0,1.549,7,7,8,21,6,4,3,9,1,5.3851648071345,7
"970","43R",2022-09-08,"n-A",10,16,6,5,21,"R","R",1,0.801,7,5,16,21,6,2,7,9,1,9.21954445729289,13
"971","43R",2022-09-08,"n-A",11,19,6,5,21,"R","R",1,1.125,7,5,19,21,6,2,8,9,1,9.89949493661167,14
"972","43R",2022-09-08,"n-A",12,6,7,21,11,"L","L",1,1.286,7,11,7,21,6,6,2,9,1,3.16227766016838,4
"973","43R",2022-09-08,"n-A",13,10,6,9,21,"R","R",1,1.317,7,9,10,21,6,5,4,9,1,5,7
"974","43R",2022-09-08,"n-A",14,6,10,21,11,"L","L",1,1.518,7,11,10,21,6,6,4,9,1,4.24264068711928,6
"975","43R",2022-09-08,"n-A",15,6,12,21,14,"L","L",1,0.814,7,14,12,21,6,7,5,9,1,4.47213595499958,6
"976","43R",2022-09-08,"n-A",16,19,6,14,21,"R","R",1,0.86,7,14,19,21,6,7,8,9,1,7.28010988928052,9
"977","43R",2022-09-08,"n-A",17,6,12,21,9,"L","L",1,2.54,7,9,12,21,6,5,5,9,1,5.65685424949238,8
"978","43R",2022-09-08,"n-A",18,6,22,21,6,"L","L",1,0.826,7,6,22,21,6,3,9,9,1,10,14
"979","43R",2022-09-08,"n-A",19,16,6,11,21,"R","R",1,2.977,7,11,16,21,6,6,7,9,1,6.70820393249937,9
"980","43R",2022-09-08,"n-A",20,6,22,21,7,"L","L",1,2.269,7,7,22,21,6,4,9,9,1,9.4339811320566,13
"981","43R",2022-09-08,"n-A",21,16,6,4,21,"R","R",1,0.513,7,4,16,21,6,1,7,9,1,10,14
"982","43R",2022-09-08,"n-A",22,6,19,21,6,"L","L",1,1.21,7,6,19,21,6,3,8,9,1,9.21954445729289,13
"983","43R",2022-09-08,"n-A",23,8,6,11,21,"R","R",1,2.333,7,11,8,21,6,6,3,9,1,3.60555127546399,5
"984","43R",2022-09-08,"n-A",24,19,6,6,21,"R","R",1,0.506,7,6,19,21,6,3,8,9,1,9.21954445729289,13
"985","43R",2022-09-08,"n-A",25,6,16,21,4,"L","L",1,1.373,7,4,16,21,6,1,7,9,1,10,14
"986","43R",2022-09-08,"n-A",26,14,6,4,21,"R","R",1,1.949,7,4,14,21,6,1,6,9,1,9.4339811320566,13
"987","43R",2022-09-08,"n-A",27,6,6,4,21,"R","R",1,0.543,7,4,6,21,6,1,1,9,1,8,8
"988","43R",2022-09-08,"n-A",28,19,6,9,21,"R","R",1,0.345,7,9,19,21,6,5,8,9,1,8.06225774829855,11
"989","43R",2022-09-08,"n-A",29,8,6,4,21,"R","R",1,1.037,7,4,8,21,6,1,3,9,1,8.24621125123532,10
"990","43R",2022-09-08,"n-A",30,6,16,21,9,"L","L",1,0.521,7,9,16,21,6,5,7,9,1,7.21110255092798,10
"991","43R",2022-09-08,"n-A",31,6,10,21,6,"L","L",1,1.937,7,6,10,21,6,3,4,9,1,6.70820393249937,9
"992","43R",2022-09-08,"n-A",32,6,14,21,21,"L","L",1,0.565,7,21,14,21,6,9,6,9,1,5,5
"993","43R",2022-09-08,"n-A",33,6,8,21,7,"L","L",1,0.49,7,7,8,21,6,4,3,9,1,5.3851648071345,7
"994","43R",2022-09-08,"n-A",34,6,19,21,7,"L","L",1,1.137,7,7,19,21,6,4,8,9,1,8.60232526704263,12
"995","43R",2022-09-08,"n-A",35,16,6,6,21,"R","R",1,1.188,7,6,16,21,6,3,7,9,1,8.48528137423857,12
"996","43R",2022-09-08,"n-A",36,6,7,21,7,"L","L",1,0.585,7,7,7,21,6,4,2,9,1,5.09901951359278,6
"997","43R",2022-09-08,"n-A",37,14,6,6,21,"R","R",1,0.518,7,6,14,21,6,3,6,9,1,7.81024967590665,11
"998","43R",2022-09-08,"n-A",38,6,6,21,7,"L","L",1,0.765,7,7,6,21,6,4,1,9,1,5,5
"999","43R",2022-09-08,"n-A",39,6,6,21,5,"L","L",1,0.784,7,5,6,21,6,2,1,9,1,7,7
"1000","43R",2022-09-08,"n-A",40,22,6,5,21,"R","R",1,1.281,7,5,22,21,6,2,9,9,1,10.6301458127346,15
"1001","43R",2022-09-08,"n-A",41,6,8,21,4,"L","L",1,0.81,7,4,8,21,6,1,3,9,1,8.24621125123532,10
"1002","43R",2022-09-08,"n-A",42,6,6,5,21,"R","R",1,0.505,7,5,6,21,6,2,1,9,1,7,7
"1003","43R",2022-09-08,"n-A",43,14,6,11,21,"R","R",1,1.326,7,11,14,21,6,6,6,9,1,5.8309518948453,8
"1004","43R",2022-09-08,"n-A",44,6,16,21,17,"L","L",1,0.942,7,17,16,21,6,8,7,9,1,6.08276253029822,7
"1005","43R",2022-09-08,"n-A",45,6,19,21,4,"L","L",1,0.846,7,4,19,21,6,1,8,9,1,10.6301458127346,15
"1006","43R",2022-09-08,"n-A",46,6,10,21,7,"L","L",1,0.766,7,7,10,21,6,4,4,9,1,5.8309518948453,8
"1007","43R",2022-09-08,"n-A",47,6,6,21,4,"L","L",1,0.741,7,4,6,21,6,1,1,9,1,8,8
"1008","43R",2022-09-08,"n-A",48,6,12,21,21,"L","L",1,9.105,7,21,12,21,6,9,5,9,1,4,4
"1009","43R",2022-09-08,"n-A",49,7,6,7,21,"R","R",1,1.334,7,7,7,21,6,4,2,9,1,5.09901951359278,6
"1010","43R",2022-09-08,"n-A",50,6,10,21,14,"L","L",1,1.141,7,14,10,21,6,7,4,9,1,3.60555127546399,5
"1011","43R",2022-09-08,"n-A",51,7,6,4,21,"R","R",1,0.546,7,4,7,21,6,1,2,9,1,8.06225774829855,9
"1012","43R",2022-09-08,"n-A",52,14,6,17,21,"R","R",1,1.653,7,17,14,21,6,8,6,9,1,5.09901951359278,6
"1013","43R",2022-09-08,"n-A",53,6,7,21,21,"L","L",1,2.109,7,21,7,21,6,9,2,9,1,1,1
"1014","43R",2022-09-08,"n-A",54,6,14,21,6,"L","L",1,1.541,7,6,14,21,6,3,6,9,1,7.81024967590665,11
"1015","43R",2022-09-08,"n-A",55,10,6,14,21,"R","R",1,0.813,7,14,10,21,6,7,4,9,1,3.60555127546399,5
"1016","43R",2022-09-08,"n-A",56,22,6,4,21,"R","R",1,0.482,7,4,22,21,6,1,9,9,1,11.3137084989848,16
"1017","43R",2022-09-08,"n-A",57,6,6,21,11,"L","L",1,3.128,7,11,6,21,6,6,1,9,1,3,3
"1018","43R",2022-09-08,"n-A",58,10,6,6,21,"R","R",1,1.149,7,6,10,21,6,3,4,9,1,6.70820393249937,9
"1019","43R",2022-09-08,"n-A",59,6,6,17,21,"R","L",0,0.833,7,17,6,21,6,8,1,9,1,1,1
"1020","43R",2022-09-08,"n-A",60,10,6,21,21,"R","R",1,1.696,7,21,10,21,6,9,4,9,1,3,3
"1021","43R",2022-09-08,"n-A",61,6,16,21,5,"L","L",1,0.805,7,5,16,21,6,2,7,9,1,9.21954445729289,13
"1022","43R",2022-09-08,"n-A",62,7,6,6,21,"R","R",1,0.744,7,6,7,21,6,3,2,9,1,6.08276253029822,7
"1023","43R",2022-09-08,"n-A",63,22,6,9,21,"R","R",1,0.574,7,9,22,21,6,5,9,9,1,8.94427190999916,12
"1024","43R",2022-09-08,"n-A",64,6,19,21,11,"L","L",1,0.801,7,11,19,21,6,6,8,9,1,7.61577310586391,10
"1025","43R",2022-09-08,"n-A",65,19,6,11,21,"R","R",1,0.526,7,11,19,21,6,6,8,9,1,7.61577310586391,10
"1026","43R",2022-09-08,"n-A",66,6,6,21,14,"L","L",1,1.153,7,14,6,21,6,7,1,9,1,2,2
"1027","43R",2022-09-08,"n-A",67,14,6,14,21,"R","R",1,0.953,7,14,14,21,6,7,6,9,1,5.3851648071345,7
"1028","43R",2022-09-08,"n-A",68,6,14,21,5,"L","L",1,0.472,7,5,14,21,6,2,6,9,1,8.60232526704263,12
"1029","43R",2022-09-08,"n-A",69,22,6,21,21,"R","R",1,3.265,7,21,22,21,6,9,9,9,1,8,8
"1030","43R",2022-09-08,"n-A",70,6,19,21,5,"L","L",1,0.581,7,5,19,21,6,2,8,9,1,9.89949493661167,14
"1031","43R",2022-09-08,"n-A",71,6,19,21,21,"L","L",1,0.782,7,21,19,21,6,9,8,9,1,7,7
"1032","43R",2022-09-08,"n-A",72,10,6,5,21,"R","R",1,0.634,7,5,10,21,6,2,4,9,1,7.61577310586391,10
"1033","43R",2022-09-08,"n-A",73,7,6,14,21,"R","R",1,0.57,7,14,7,21,6,7,2,9,1,2.23606797749979,3
"1034","43R",2022-09-08,"n-A",74,16,6,7,21,"R","R",1,2.471,7,7,16,21,6,4,7,9,1,7.81024967590665,11
"1035","43R",2022-09-08,"n-A",75,6,8,21,11,"L","L",1,0.802,7,11,8,21,6,6,3,9,1,3.60555127546399,5
"1036","43R",2022-09-08,"n-A",76,10,6,7,21,"R","R",1,0.782,7,7,10,21,6,4,4,9,1,5.8309518948453,8
"1037","43R",2022-09-08,"n-A",77,6,8,21,21,"L","L",1,1.089,7,21,8,21,6,9,3,9,1,2,2
"1038","43R",2022-09-08,"n-A",78,6,12,21,17,"L","L",1,0.505,7,17,12,21,6,8,5,9,1,4.12310562561766,5
"1039","43R",2022-09-08,"n-A",79,22,6,14,21,"R","R",1,0.961,7,14,22,21,6,7,9,9,1,8.24621125123532,10
"1040","43R",2022-09-08,"n-A",80,19,6,4,21,"R","R",1,0.473,7,4,19,21,6,1,8,9,1,10.6301458127346,15
"1041","43R",2022-09-08,"n-A",81,6,6,6,21,"R","R",1,0.617,7,6,6,21,6,3,1,9,1,6,6
"1042","43R",2022-09-08,"n-A",82,6,10,21,9,"L","L",1,0.777,7,9,10,21,6,5,4,9,1,5,7
"1043","43R",2022-09-08,"n-A",83,6,6,14,21,"R","L",0,0.478,7,14,6,21,6,7,1,9,1,2,2
"1044","43R",2022-09-08,"n-A",84,6,12,21,7,"L","L",1,1.278,7,7,12,21,6,4,5,9,1,6.40312423743285,9
"1045","43R",2022-09-08,"n-A",85,6,6,21,9,"L","L",1,1.586,7,9,6,21,6,5,1,9,1,4,4
"1046","43R",2022-09-08,"n-A",86,19,6,7,21,"R","R",1,0.947,7,7,19,21,6,4,8,9,1,8.60232526704263,12
"1047","43R",2022-09-08,"n-A",87,6,22,21,21,"L","L",1,1.993,7,21,22,21,6,9,9,9,1,8,8
"1048","43R",2022-09-08,"n-A",88,6,6,21,6,"L","L",1,0.478,7,6,6,21,6,3,1,9,1,6,6
"1049","43R",2022-09-08,"n-A",89,7,6,17,21,"R","R",1,0.446,7,17,7,21,6,8,2,9,1,1.4142135623731,2
"1050","43R",2022-09-08,"n-A",90,6,12,21,11,"L","L",1,1.21,7,11,12,21,6,6,5,9,1,5,7
"1051","43R",2022-09-08,"n-A",91,6,10,21,17,"L","L",1,0.938,7,17,10,21,6,8,4,9,1,3.16227766016838,4
"1052","43R",2022-09-08,"n-A",92,12,6,14,21,"R","L",0,2.385,7,14,12,21,6,7,5,9,1,4.47213595499958,6
"1053","43R",2022-09-08,"n-A",93,14,6,9,21,"R","R",1,0.537,7,9,14,21,6,5,6,9,1,6.40312423743285,9
"1054","43R",2022-09-08,"n-A",94,7,6,21,21,"R","L",0,1.858,7,21,7,21,6,9,2,9,1,1,1
"1055","43R",2022-09-08,"n-A",95,6,16,21,14,"L","L",1,2.189,7,14,16,21,6,7,7,9,1,6.32455532033676,8
"1056","43R",2022-09-08,"n-A",96,6,7,21,4,"L","L",1,1.113,7,4,7,21,6,1,2,9,1,8.06225774829855,9
"1057","43R",2022-09-08,"n-A",97,6,6,21,17,"L","L",1,0.933,7,17,6,21,6,8,1,9,1,1,1
"1058","43R",2022-09-08,"n-A",98,6,14,21,17,"L","L",1,0.494,7,17,14,21,6,8,6,9,1,5.09901951359278,6
"1059","43R",2022-09-08,"n-A",99,8,6,5,21,"R","R",1,0.73,7,5,8,21,6,2,3,9,1,7.28010988928052,9
"1060","43R",2022-09-08,"n-A",100,6,8,21,9,"L","L",1,1.473,7,9,8,21,6,5,3,9,1,4.47213595499958,6
"1061","43R",2022-09-08,"n-A",101,6,7,21,9,"L","L",1,0.42,7,9,7,21,6,5,2,9,1,4.12310562561766,5
"1062","43R",2022-09-08,"n-A",102,6,12,21,5,"L","L",1,1.218,7,5,12,21,6,2,5,9,1,8.06225774829855,11
"1063","43R",2022-09-08,"n-A",103,6,6,11,21,"R","L",0,0.902,7,11,6,21,6,6,1,9,1,3,3
